run_id,condition,success,timeout,failed_images,failed_audio,failed_video,trial_type,trial_index,time_elapsed,internal_node_id,rt,stimuli,images_chosen,click-by-click-data,recorded_at,ip,user_agent,device,browser,browser_version,platform,platform_version
11,1,true,false,[],[],[],preload,0,2930,0.0-0.0,"""","""","""","""","2021-06-05 00:47:08",99.239.35.37,"Mozilla/5.0 (Windows NT 10.0; Win64; x64) AppleWebKit/537.36 (KHTML, like Gecko) Chrome/90.0.4430.212 Safari/537.36",WebKit,Chrome,90.0.4430.212,Windows,10.0
11,1,"""","""","""","""","""",image-multi-select,1,16264,0.0-1.0-0.0,13318.230000033509,"[""Stimuli/positive/7499.jpg"",""Stimuli/neutral/BP5.jpg"",""Stimuli/negative/207.jpg""]","[""Stimuli/neutral/BP5.jpg"",""Stimuli/negative/207.jpg""]","{""top_image"":""Stimuli/positive/7499.jpg"",""top_image_clicks"":[],""left_image"":""Stimuli/neutral/BP5.jpg"",""left_image_clicks"":[12355.520000040997],""right_image"":""Stimuli/negative/207.jpg"",""right_image_clicks"":[11820.665000006557]}","2021-06-05 00:47:08",99.239.35.37,"Mozilla/5.0 (Windows NT 10.0; Win64; x64) AppleWebKit/537.36 (KHTML, like Gecko) Chrome/90.0.4430.212 Safari/537.36",WebKit,Chrome,90.0.4430.212,Windows,10.0
11,1,"""","""","""","""","""",image-multi-select,2,21216,0.0-1.0-0.1,4945.340000034776,"[""Stimuli/neutral/2215.jpg"",""Stimuli/negative/207.jpg"",""Stimuli/neutral/SP2.jpg""]","[""Stimuli/neutral/2215.jpg"",""Stimuli/neutral/SP2.jpg""]","{""top_image"":""Stimuli/neutral/2215.jpg"",""top_image_clicks"":[3472.7399999974295],""left_image"":""Stimuli/negative/207.jpg"",""left_image_clicks"":[],""right_image"":""Stimuli/neutral/SP2.jpg"",""right_image_clicks"":[4131.500000017695]}","2021-06-05 00:47:08",99.239.35.37,"Mozilla/5.0 (Windows NT 10.0; Win64; x64) AppleWebKit/537.36 (KHTML, like Gecko) Chrome/90.0.4430.212 Safari/537.36",WebKit,Chrome,90.0.4430.212,Windows,10.0
11,1,"""","""","""","""","""",image-multi-select,3,26189,0.0-1.0-0.2,4965.439999999944,"[""Stimuli/neutral/2215.jpg"",""Stimuli/positive/2002.jpg"",""Stimuli/neutral/D.jpg""]","[""Stimuli/neutral/2215.jpg"",""Stimuli/positive/2002.jpg""]","{""top_image"":""Stimuli/neutral/2215.jpg"",""top_image_clicks"":[1723.0499999714084],""left_image"":""Stimuli/positive/2002.jpg"",""left_image_clicks"":[3851.3899999670684],""right_image"":""Stimuli/neutral/D.jpg"",""right_image_clicks"":[]}","2021-06-05 00:47:08",99.239.35.37,"Mozilla/5.0 (Windows NT 10.0; Win64; x64) AppleWebKit/537.36 (KHTML, like Gecko) Chrome/90.0.4430.212 Safari/537.36",WebKit,Chrome,90.0.4430.212,Windows,10.0
11,1,"""","""","""","""","""",image-multi-select,4,35548,0.0-1.0-0.3,9354.554999968968,"[""Stimuli/neutral/2200.jpg"",""Stimuli/positive/4689.jpg"",""Stimuli/neutral/2394.jpg""]","[""Stimuli/neutral/2200.jpg"",""Stimuli/neutral/2394.jpg""]","{""top_image"":""Stimuli/neutral/2200.jpg"",""top_image_clicks"":[7857.149999996182],""left_image"":""Stimuli/positive/4689.jpg"",""left_image_clicks"":[],""right_image"":""Stimuli/neutral/2394.jpg"",""right_image_clicks"":[8325.534999952652]}","2021-06-05 00:47:08",99.239.35.37,"Mozilla/5.0 (Windows NT 10.0; Win64; x64) AppleWebKit/537.36 (KHTML, like Gecko) Chrome/90.0.4430.212 Safari/537.36",WebKit,Chrome,90.0.4430.212,Windows,10.0
11,1,"""","""","""","""","""",image-multi-select,5,40622,0.0-1.0-0.4,5065.39000000339,"[""Stimuli/positive/2395.jpg"",""Stimuli/positive/8300.jpg"",""Stimuli/negative/3180.jpg""]","[""Stimuli/positive/2395.jpg"",""Stimuli/positive/8300.jpg""]","{""top_image"":""Stimuli/positive/2395.jpg"",""top_image_clicks"":[1568.0050000082701],""left_image"":""Stimuli/positive/8300.jpg"",""left_image_clicks"":[2073.7199999857694],""right_image"":""Stimuli/negative/3180.jpg"",""right_image_clicks"":[]}","2021-06-05 00:47:08",99.239.35.37,"Mozilla/5.0 (Windows NT 10.0; Win64; x64) AppleWebKit/537.36 (KHTML, like Gecko) Chrome/90.0.4430.212 Safari/537.36",WebKit,Chrome,90.0.4430.212,Windows,10.0
11,1,"""","""","""","""","""",image-multi-select,6,44837,0.0-1.0-0.5,4211.659999971744,"[""Stimuli/positive/2025.jpg"",""Stimuli/negative/SF4.jpg"",""Stimuli/neutral/D.jpg""]","[""Stimuli/positive/2025.jpg"",""Stimuli/neutral/D.jpg""]","{""top_image"":""Stimuli/positive/2025.jpg"",""top_image_clicks"":[2861.429999989923],""left_image"":""Stimuli/negative/SF4.jpg"",""left_image_clicks"":[],""right_image"":""Stimuli/neutral/D.jpg"",""right_image_clicks"":[3343.5499999905005]}","2021-06-05 00:47:08",99.239.35.37,"Mozilla/5.0 (Windows NT 10.0; Win64; x64) AppleWebKit/537.36 (KHTML, like Gecko) Chrome/90.0.4430.212 Safari/537.36",WebKit,Chrome,90.0.4430.212,Windows,10.0
11,1,"""","""","""","""","""",image-multi-select,7,49221,0.0-1.0-0.6,4375.52499998128,"[""Stimuli/negative/6311.jpg"",""Stimuli/neutral/D.jpg"",""Stimuli/negative/9041.jpg""]","[""Stimuli/negative/6311.jpg"",""Stimuli/negative/9041.jpg""]","{""top_image"":""Stimuli/negative/6311.jpg"",""top_image_clicks"":[3491.1299999803305],""left_image"":""Stimuli/neutral/D.jpg"",""left_image_clicks"":[],""right_image"":""Stimuli/negative/9041.jpg"",""right_image_clicks"":[3108.8549999985844]}","2021-06-05 00:47:08",99.239.35.37,"Mozilla/5.0 (Windows NT 10.0; Win64; x64) AppleWebKit/537.36 (KHTML, like Gecko) Chrome/90.0.4430.212 Safari/537.36",WebKit,Chrome,90.0.4430.212,Windows,10.0
11,1,"""","""","""","""","""",image-multi-select,8,74354,0.0-1.0-0.7,25127.9499999946,"[""Stimuli/positive/b.jpg"",""Stimuli/negative/SF4.jpg"",""Stimuli/neutral/2442.jpg""]","[""Stimuli/positive/b.jpg"",""Stimuli/neutral/2442.jpg""]","{""top_image"":""Stimuli/positive/b.jpg"",""top_image_clicks"":[24491.149999957997],""left_image"":""Stimuli/negative/SF4.jpg"",""left_image_clicks"":[],""right_image"":""Stimuli/neutral/2442.jpg"",""right_image_clicks"":[24100.325000006706]}","2021-06-05 00:47:08",99.239.35.37,"Mozilla/5.0 (Windows NT 10.0; Win64; x64) AppleWebKit/537.36 (KHTML, like Gecko) Chrome/90.0.4430.212 Safari/537.36",WebKit,Chrome,90.0.4430.212,Windows,10.0
11,1,"""","""","""","""","""",image-multi-select,9,78713,0.0-1.0-0.8,4352.220000000671,"[""Stimuli/neutral/2215.jpg"",""Stimuli/neutral/BP5.jpg"",""Stimuli/negative/207.jpg""]","[""Stimuli/neutral/2215.jpg"",""Stimuli/neutral/BP5.jpg""]","{""top_image"":""Stimuli/neutral/2215.jpg"",""top_image_clicks"":[3702.2199999773875],""left_image"":""Stimuli/neutral/BP5.jpg"",""left_image_clicks"":[3451.5900000114925],""right_image"":""Stimuli/negative/207.jpg"",""right_image_clicks"":[]}","2021-06-05 00:47:08",99.239.35.37,"Mozilla/5.0 (Windows NT 10.0; Win64; x64) AppleWebKit/537.36 (KHTML, like Gecko) Chrome/90.0.4430.212 Safari/537.36",WebKit,Chrome,90.0.4430.212,Windows,10.0
11,1,"""","""","""","""","""",image-multi-select,10,84037,0.0-1.0-0.9,5319.45499998983,"[""Stimuli/positive/7499.jpg"",""Stimuli/positive/2025.jpg"",""Stimuli/neutral/D.jpg""]","[""Stimuli/positive/2025.jpg"",""Stimuli/neutral/D.jpg""]","{""top_image"":""Stimuli/positive/7499.jpg"",""top_image_clicks"":[],""left_image"":""Stimuli/positive/2025.jpg"",""left_image_clicks"":[3959.7999999532476],""right_image"":""Stimuli/neutral/D.jpg"",""right_image_clicks"":[4200.079999980517]}","2021-06-05 00:47:08",99.239.35.37,"Mozilla/5.0 (Windows NT 10.0; Win64; x64) AppleWebKit/537.36 (KHTML, like Gecko) Chrome/90.0.4430.212 Safari/537.36",WebKit,Chrome,90.0.4430.212,Windows,10.0
11,1,"""","""","""","""","""",image-multi-select,11,89024,0.0-1.0-0.10,4983.364999992773,"[""Stimuli/neutral/SP2.jpg"",""Stimuli/positive/b.jpg"",""Stimuli/neutral/D.jpg""]","[""Stimuli/neutral/SP2.jpg"",""Stimuli/neutral/D.jpg""]","{""top_image"":""Stimuli/neutral/SP2.jpg"",""top_image_clicks"":[3862.4049999634735],""left_image"":""Stimuli/positive/b.jpg"",""left_image_clicks"":[],""right_image"":""Stimuli/neutral/D.jpg"",""right_image_clicks"":[3614.274999999907]}","2021-06-05 00:47:08",99.239.35.37,"Mozilla/5.0 (Windows NT 10.0; Win64; x64) AppleWebKit/537.36 (KHTML, like Gecko) Chrome/90.0.4430.212 Safari/537.36",WebKit,Chrome,90.0.4430.212,Windows,10.0
11,1,"""","""","""","""","""",image-multi-select,12,98980,0.0-1.0-0.11,9951.920000021346,"[""Stimuli/negative/3180.jpg"",""Stimuli/neutral/N05.bmp"",""Stimuli/negative/9041.jpg""]","[""Stimuli/negative/3180.jpg"",""Stimuli/negative/9041.jpg""]","{""top_image"":""Stimuli/negative/3180.jpg"",""top_image_clicks"":[9252.154999994673],""left_image"":""Stimuli/neutral/N05.bmp"",""left_image_clicks"":[],""right_image"":""Stimuli/negative/9041.jpg"",""right_image_clicks"":[9547.190000012051]}","2021-06-05 00:47:08",99.239.35.37,"Mozilla/5.0 (Windows NT 10.0; Win64; x64) AppleWebKit/537.36 (KHTML, like Gecko) Chrome/90.0.4430.212 Safari/537.36",WebKit,Chrome,90.0.4430.212,Windows,10.0
11,1,"""","""","""","""","""",image-multi-select,13,102674,0.0-1.0-0.12,3690.760000026785,"[""Stimuli/negative/L04.bmp"",""Stimuli/negative/207.jpg"",""Stimuli/negative/6510.jpg""]","[""Stimuli/negative/L04.bmp"",""Stimuli/negative/207.jpg""]","{""top_image"":""Stimuli/negative/L04.bmp"",""top_image_clicks"":[3024.005000013858],""left_image"":""Stimuli/negative/207.jpg"",""left_image_clicks"":[3223.160000052303],""right_image"":""Stimuli/negative/6510.jpg"",""right_image_clicks"":[]}","2021-06-05 00:47:08",99.239.35.37,"Mozilla/5.0 (Windows NT 10.0; Win64; x64) AppleWebKit/537.36 (KHTML, like Gecko) Chrome/90.0.4430.212 Safari/537.36",WebKit,Chrome,90.0.4430.212,Windows,10.0
11,1,"""","""","""","""","""",image-multi-select,14,112645,0.0-1.0-0.13,9969.6249999688,"[""Stimuli/neutral/2215.jpg"",""Stimuli/neutral/2394.jpg"",""Stimuli/positive/7325.jpg""]","[""Stimuli/neutral/2215.jpg"",""Stimuli/neutral/2394.jpg""]","{""top_image"":""Stimuli/neutral/2215.jpg"",""top_image_clicks"":[8395.694999955595],""left_image"":""Stimuli/neutral/2394.jpg"",""left_image_clicks"":[7797.174999956042],""right_image"":""Stimuli/positive/7325.jpg"",""right_image_clicks"":[]}","2021-06-05 00:47:08",99.239.35.37,"Mozilla/5.0 (Windows NT 10.0; Win64; x64) AppleWebKit/537.36 (KHTML, like Gecko) Chrome/90.0.4430.212 Safari/537.36",WebKit,Chrome,90.0.4430.212,Windows,10.0
11,1,"""","""","""","""","""",image-multi-select,15,116852,0.0-1.0-0.14,4198.31999996677,"[""Stimuli/positive/8300.jpg"",""Stimuli/negative/214.jpg"",""Stimuli/positive/2002.jpg""]","[""Stimuli/positive/8300.jpg"",""Stimuli/positive/2002.jpg""]","{""top_image"":""Stimuli/positive/8300.jpg"",""top_image_clicks"":[3627.334999968298],""left_image"":""Stimuli/negative/214.jpg"",""left_image_clicks"":[],""right_image"":""Stimuli/positive/2002.jpg"",""right_image_clicks"":[3293.164999980945]}","2021-06-05 00:47:08",99.239.35.37,"Mozilla/5.0 (Windows NT 10.0; Win64; x64) AppleWebKit/537.36 (KHTML, like Gecko) Chrome/90.0.4430.212 Safari/537.36",WebKit,Chrome,90.0.4430.212,Windows,10.0
11,1,"""","""","""","""","""",image-multi-select,16,121093,0.0-1.0-0.15,4236.794999975245,"[""Stimuli/positive/4689.jpg"",""Stimuli/negative/206.jpg"",""Stimuli/positive/7325.jpg""]","[""Stimuli/positive/4689.jpg"",""Stimuli/positive/7325.jpg""]","{""top_image"":""Stimuli/positive/4689.jpg"",""top_image_clicks"":[2449.8550000134856],""left_image"":""Stimuli/negative/206.jpg"",""left_image_clicks"":[],""right_image"":""Stimuli/positive/7325.jpg"",""right_image_clicks"":[2695.484999974724]}","2021-06-05 00:47:08",99.239.35.37,"Mozilla/5.0 (Windows NT 10.0; Win64; x64) AppleWebKit/537.36 (KHTML, like Gecko) Chrome/90.0.4430.212 Safari/537.36",WebKit,Chrome,90.0.4430.212,Windows,10.0
11,1,"""","""","""","""","""",image-multi-select,17,131453,0.0-1.0-0.16,10351.710000017192,"[""Stimuli/negative/L04.bmp"",""Stimuli/positive/5831.jpg"",""Stimuli/neutral/2442.jpg""]","[""Stimuli/positive/5831.jpg"",""Stimuli/neutral/2442.jpg""]","{""top_image"":""Stimuli/negative/L04.bmp"",""top_image_clicks"":[],""left_image"":""Stimuli/positive/5831.jpg"",""left_image_clicks"":[9718.479999981355],""right_image"":""Stimuli/neutral/2442.jpg"",""right_image_clicks"":[8622.214999981225]}","2021-06-05 00:47:08",99.239.35.37,"Mozilla/5.0 (Windows NT 10.0; Win64; x64) AppleWebKit/537.36 (KHTML, like Gecko) Chrome/90.0.4430.212 Safari/537.36",WebKit,Chrome,90.0.4430.212,Windows,10.0
11,1,"""","""","""","""","""",image-multi-select,18,135828,0.0-1.0-0.17,4371.594999975059,"[""Stimuli/neutral/2215.jpg"",""Stimuli/neutral/194.jpg"",""Stimuli/positive/8300.jpg""]","[""Stimuli/neutral/2215.jpg"",""Stimuli/neutral/194.jpg""]","{""top_image"":""Stimuli/neutral/2215.jpg"",""top_image_clicks"":[3736.469999945257],""left_image"":""Stimuli/neutral/194.jpg"",""left_image_clicks"":[3488.0949999787845],""right_image"":""Stimuli/positive/8300.jpg"",""right_image_clicks"":[]}","2021-06-05 00:47:08",99.239.35.37,"Mozilla/5.0 (Windows NT 10.0; Win64; x64) AppleWebKit/537.36 (KHTML, like Gecko) Chrome/90.0.4430.212 Safari/537.36",WebKit,Chrome,90.0.4430.212,Windows,10.0
11,1,"""","""","""","""","""",image-multi-select,19,145051,0.0-1.0-0.18,9215.830000001006,"[""Stimuli/negative/L04.bmp"",""Stimuli/negative/L29.bmp"",""Stimuli/negative/SF4.jpg""]","[""Stimuli/negative/L04.bmp"",""Stimuli/negative/L29.bmp""]","{""top_image"":""Stimuli/negative/L04.bmp"",""top_image_clicks"":[8609.494999982417],""left_image"":""Stimuli/negative/L29.bmp"",""left_image_clicks"":[7275.265000003856],""right_image"":""Stimuli/negative/SF4.jpg"",""right_image_clicks"":[]}","2021-06-05 00:47:08",99.239.35.37,"Mozilla/5.0 (Windows NT 10.0; Win64; x64) AppleWebKit/537.36 (KHTML, like Gecko) Chrome/90.0.4430.212 Safari/537.36",WebKit,Chrome,90.0.4430.212,Windows,10.0
11,1,"""","""","""","""","""",image-multi-select,20,150206,0.0-1.0-0.19,5152.800000039861,"[""Stimuli/positive/5628.jpg"",""Stimuli/positive/2002.jpg"",""Stimuli/negative/206.jpg""]","[""Stimuli/positive/5628.jpg"",""Stimuli/positive/2002.jpg""]","{""top_image"":""Stimuli/positive/5628.jpg"",""top_image_clicks"":[4576.975000032689],""left_image"":""Stimuli/positive/2002.jpg"",""left_image_clicks"":[4361.315000045579],""right_image"":""Stimuli/negative/206.jpg"",""right_image_clicks"":[3301.9900000072084]}","2021-06-05 00:47:08",99.239.35.37,"Mozilla/5.0 (Windows NT 10.0; Win64; x64) AppleWebKit/537.36 (KHTML, like Gecko) Chrome/90.0.4430.212 Safari/537.36",WebKit,Chrome,90.0.4430.212,Windows,10.0
11,1,"""","""","""","""","""",image-multi-select,21,155888,0.0-1.0-0.20,5675.199999997858,"[""Stimuli/positive/4689.jpg"",""Stimuli/negative/6311.jpg"",""Stimuli/positive/2002.jpg""]","[""Stimuli/positive/4689.jpg"",""Stimuli/positive/2002.jpg""]","{""top_image"":""Stimuli/positive/4689.jpg"",""top_image_clicks"":[4056.734999991022],""left_image"":""Stimuli/negative/6311.jpg"",""left_image_clicks"":[],""right_image"":""Stimuli/positive/2002.jpg"",""right_image_clicks"":[5127.355000004172]}","2021-06-05 00:47:08",99.239.35.37,"Mozilla/5.0 (Windows NT 10.0; Win64; x64) AppleWebKit/537.36 (KHTML, like Gecko) Chrome/90.0.4430.212 Safari/537.36",WebKit,Chrome,90.0.4430.212,Windows,10.0
11,1,"""","""","""","""","""",image-multi-select,22,163297,0.0-1.0-0.21,7404.0099999983795,"[""Stimuli/neutral/2215.jpg"",""Stimuli/negative/L29.bmp"",""Stimuli/negative/SF4.jpg""]","[""Stimuli/negative/L29.bmp"",""Stimuli/negative/SF4.jpg""]","{""top_image"":""Stimuli/neutral/2215.jpg"",""top_image_clicks"":[],""left_image"":""Stimuli/negative/L29.bmp"",""left_image_clicks"":[6260.009999969043],""right_image"":""Stimuli/negative/SF4.jpg"",""right_image_clicks"":[6731.474999978673]}","2021-06-05 00:47:08",99.239.35.37,"Mozilla/5.0 (Windows NT 10.0; Win64; x64) AppleWebKit/537.36 (KHTML, like Gecko) Chrome/90.0.4430.212 Safari/537.36",WebKit,Chrome,90.0.4430.212,Windows,10.0
11,1,"""","""","""","""","""",image-multi-select,23,170038,0.0-1.0-0.22,6731.8799999775365,"[""Stimuli/negative/3180.jpg"",""Stimuli/neutral/N05.bmp"",""Stimuli/neutral/D.jpg""]","[""Stimuli/neutral/N05.bmp"",""Stimuli/neutral/D.jpg""]","{""top_image"":""Stimuli/negative/3180.jpg"",""top_image_clicks"":[],""left_image"":""Stimuli/neutral/N05.bmp"",""left_image_clicks"":[6320.134999987204],""right_image"":""Stimuli/neutral/D.jpg"",""right_image_clicks"":[5893.020000017714]}","2021-06-05 00:47:08",99.239.35.37,"Mozilla/5.0 (Windows NT 10.0; Win64; x64) AppleWebKit/537.36 (KHTML, like Gecko) Chrome/90.0.4430.212 Safari/537.36",WebKit,Chrome,90.0.4430.212,Windows,10.0
11,1,"""","""","""","""","""",image-multi-select,24,174130,0.0-1.0-0.23,4088.3649999741465,"[""Stimuli/neutral/BP5.jpg"",""Stimuli/neutral/2200.jpg"",""Stimuli/neutral/SP2.jpg""]","[""Stimuli/neutral/BP5.jpg"",""Stimuli/neutral/SP2.jpg""]","{""top_image"":""Stimuli/neutral/BP5.jpg"",""top_image_clicks"":[1985.2649999666028,3347.7449999772944],""left_image"":""Stimuli/neutral/2200.jpg"",""left_image_clicks"":[1771.4350000023842],""right_image"":""Stimuli/neutral/SP2.jpg"",""right_image_clicks"":[3622.139999992214]}","2021-06-05 00:47:08",99.239.35.37,"Mozilla/5.0 (Windows NT 10.0; Win64; x64) AppleWebKit/537.36 (KHTML, like Gecko) Chrome/90.0.4430.212 Safari/537.36",WebKit,Chrome,90.0.4430.212,Windows,10.0
11,1,"""","""","""","""","""",image-multi-select,25,177737,0.0-1.0-0.24,3600.52000003634,"[""Stimuli/positive/5831.jpg"",""Stimuli/neutral/SP3.jpg"",""Stimuli/positive/2002.jpg""]","[""Stimuli/neutral/SP3.jpg"",""Stimuli/positive/2002.jpg""]","{""top_image"":""Stimuli/positive/5831.jpg"",""top_image_clicks"":[],""left_image"":""Stimuli/neutral/SP3.jpg"",""left_image_clicks"":[2589.6450000000186],""right_image"":""Stimuli/positive/2002.jpg"",""right_image_clicks"":[2721.8550000106916]}","2021-06-05 00:47:08",99.239.35.37,"Mozilla/5.0 (Windows NT 10.0; Win64; x64) AppleWebKit/537.36 (KHTML, like Gecko) Chrome/90.0.4430.212 Safari/537.36",WebKit,Chrome,90.0.4430.212,Windows,10.0
11,1,"""","""","""","""","""",image-multi-select,26,181181,0.0-1.0-0.25,3440.134999982547,"[""Stimuli/neutral/BP5.jpg"",""Stimuli/neutral/2200.jpg"",""Stimuli/negative/6510.jpg""]","[""Stimuli/neutral/BP5.jpg"",""Stimuli/neutral/2200.jpg""]","{""top_image"":""Stimuli/neutral/BP5.jpg"",""top_image_clicks"":[2728.5499999998137],""left_image"":""Stimuli/neutral/2200.jpg"",""left_image_clicks"":[2547.619999968447],""right_image"":""Stimuli/negative/6510.jpg"",""right_image_clicks"":[]}","2021-06-05 00:47:08",99.239.35.37,"Mozilla/5.0 (Windows NT 10.0; Win64; x64) AppleWebKit/537.36 (KHTML, like Gecko) Chrome/90.0.4430.212 Safari/537.36",WebKit,Chrome,90.0.4430.212,Windows,10.0
11,1,"""","""","""","""","""",image-multi-select,27,183183,0.0-1.0-0.26,1995.4549999674782,"[""Stimuli/neutral/2215.jpg"",""Stimuli/neutral/2200.jpg"",""Stimuli/positive/5628.jpg""]","[""Stimuli/neutral/2215.jpg"",""Stimuli/neutral/2200.jpg""]","{""top_image"":""Stimuli/neutral/2215.jpg"",""top_image_clicks"":[1476.5149999875575],""left_image"":""Stimuli/neutral/2200.jpg"",""left_image_clicks"":[1374.8299999861047],""right_image"":""Stimuli/positive/5628.jpg"",""right_image_clicks"":[]}","2021-06-05 00:47:08",99.239.35.37,"Mozilla/5.0 (Windows NT 10.0; Win64; x64) AppleWebKit/537.36 (KHTML, like Gecko) Chrome/90.0.4430.212 Safari/537.36",WebKit,Chrome,90.0.4430.212,Windows,10.0
11,1,"""","""","""","""","""",image-multi-select,28,192519,0.0-1.0-0.27,9334.614999999758,"[""Stimuli/positive/2025.jpg"",""Stimuli/positive/8300.jpg"",""Stimuli/negative/SF4.jpg""]","[""Stimuli/positive/2025.jpg"",""Stimuli/negative/SF4.jpg""]","{""top_image"":""Stimuli/positive/2025.jpg"",""top_image_clicks"":[5890.499999979511],""left_image"":""Stimuli/positive/8300.jpg"",""left_image_clicks"":[5705.719999969006],""right_image"":""Stimuli/negative/SF4.jpg"",""right_image_clicks"":[8725.500000000466]}","2021-06-05 00:47:08",99.239.35.37,"Mozilla/5.0 (Windows NT 10.0; Win64; x64) AppleWebKit/537.36 (KHTML, like Gecko) Chrome/90.0.4430.212 Safari/537.36",WebKit,Chrome,90.0.4430.212,Windows,10.0
11,1,"""","""","""","""","""",image-multi-select,29,199198,0.0-1.0-0.28,6675.02499994589,"[""Stimuli/neutral/2215.jpg"",""Stimuli/negative/6510.jpg"",""Stimuli/positive/7325.jpg""]","[""Stimuli/neutral/2215.jpg"",""Stimuli/positive/7325.jpg""]","{""top_image"":""Stimuli/neutral/2215.jpg"",""top_image_clicks"":[5899.084999982733],""left_image"":""Stimuli/negative/6510.jpg"",""left_image_clicks"":[],""right_image"":""Stimuli/positive/7325.jpg"",""right_image_clicks"":[6182.034999947064]}","2021-06-05 00:47:08",99.239.35.37,"Mozilla/5.0 (Windows NT 10.0; Win64; x64) AppleWebKit/537.36 (KHTML, like Gecko) Chrome/90.0.4430.212 Safari/537.36",WebKit,Chrome,90.0.4430.212,Windows,10.0
11,1,"""","""","""","""","""",image-multi-select,30,201939,0.0-1.0-0.29,2736.8249999708496,"[""Stimuli/positive/2395.jpg"",""Stimuli/positive/8300.jpg"",""Stimuli/negative/6311.jpg""]","[""Stimuli/positive/2395.jpg"",""Stimuli/positive/8300.jpg""]","{""top_image"":""Stimuli/positive/2395.jpg"",""top_image_clicks"":[2098.0100000160746],""left_image"":""Stimuli/positive/8300.jpg"",""left_image_clicks"":[2237.6749999821186],""right_image"":""Stimuli/negative/6311.jpg"",""right_image_clicks"":[]}","2021-06-05 00:47:08",99.239.35.37,"Mozilla/5.0 (Windows NT 10.0; Win64; x64) AppleWebKit/537.36 (KHTML, like Gecko) Chrome/90.0.4430.212 Safari/537.36",WebKit,Chrome,90.0.4430.212,Windows,10.0
11,1,"""","""","""","""","""",image-multi-select,31,205545,0.0-1.0-0.30,3595.600000000559,"[""Stimuli/neutral/194.jpg"",""Stimuli/positive/2025.jpg"",""Stimuli/negative/9041.jpg""]","[""Stimuli/neutral/194.jpg"",""Stimuli/positive/2025.jpg""]","{""top_image"":""Stimuli/neutral/194.jpg"",""top_image_clicks"":[2730.150000017602],""left_image"":""Stimuli/positive/2025.jpg"",""left_image_clicks"":[2909.845000016503],""right_image"":""Stimuli/negative/9041.jpg"",""right_image_clicks"":[]}","2021-06-05 00:47:08",99.239.35.37,"Mozilla/5.0 (Windows NT 10.0; Win64; x64) AppleWebKit/537.36 (KHTML, like Gecko) Chrome/90.0.4430.212 Safari/537.36",WebKit,Chrome,90.0.4430.212,Windows,10.0
11,1,"""","""","""","""","""",image-multi-select,32,213690,0.0-1.0-0.31,8141.215000010561,"[""Stimuli/neutral/2215.jpg"",""Stimuli/positive/2002.jpg"",""Stimuli/neutral/2442.jpg""]","[""Stimuli/neutral/2215.jpg"",""Stimuli/neutral/2442.jpg""]","{""top_image"":""Stimuli/neutral/2215.jpg"",""top_image_clicks"":[1375.1700000138953],""left_image"":""Stimuli/positive/2002.jpg"",""left_image_clicks"":[1493.2300000218675],""right_image"":""Stimuli/neutral/2442.jpg"",""right_image_clicks"":[5057.510000013281]}","2021-06-05 00:47:08",99.239.35.37,"Mozilla/5.0 (Windows NT 10.0; Win64; x64) AppleWebKit/537.36 (KHTML, like Gecko) Chrome/90.0.4430.212 Safari/537.36",WebKit,Chrome,90.0.4430.212,Windows,10.0
11,1,"""","""","""","""","""",image-multi-select,33,218378,0.0-1.0-0.32,4679.810000001453,"[""Stimuli/neutral/D.jpg"",""Stimuli/negative/206.jpg"",""Stimuli/negative/9041.jpg""]","[""Stimuli/negative/206.jpg"",""Stimuli/negative/9041.jpg""]","{""top_image"":""Stimuli/neutral/D.jpg"",""top_image_clicks"":[],""left_image"":""Stimuli/negative/206.jpg"",""left_image_clicks"":[3142.4499999848194],""right_image"":""Stimuli/negative/9041.jpg"",""right_image_clicks"":[4033.869999984745]}","2021-06-05 00:47:08",99.239.35.37,"Mozilla/5.0 (Windows NT 10.0; Win64; x64) AppleWebKit/537.36 (KHTML, like Gecko) Chrome/90.0.4430.212 Safari/537.36",WebKit,Chrome,90.0.4430.212,Windows,10.0
11,1,"""","""","""","""","""",image-multi-select,34,225866,0.0-1.0-0.33,7485.99000001559,"[""Stimuli/negative/3180.jpg"",""Stimuli/positive/2002.jpg"",""Stimuli/negative/206.jpg""]","[""Stimuli/negative/3180.jpg"",""Stimuli/negative/206.jpg""]","{""top_image"":""Stimuli/negative/3180.jpg"",""top_image_clicks"":[3515.494999999646],""left_image"":""Stimuli/positive/2002.jpg"",""left_image_clicks"":[],""right_image"":""Stimuli/negative/206.jpg"",""right_image_clicks"":[2462.2550000203773]}","2021-06-05 00:47:08",99.239.35.37,"Mozilla/5.0 (Windows NT 10.0; Win64; x64) AppleWebKit/537.36 (KHTML, like Gecko) Chrome/90.0.4430.212 Safari/537.36",WebKit,Chrome,90.0.4430.212,Windows,10.0
11,1,"""","""","""","""","""",image-multi-select,35,232534,0.0-1.0-0.34,6661.3300000317395,"[""Stimuli/positive/5628.jpg"",""Stimuli/negative/6311.jpg"",""Stimuli/positive/2002.jpg""]","[""Stimuli/positive/5628.jpg"",""Stimuli/positive/2002.jpg""]","{""top_image"":""Stimuli/positive/5628.jpg"",""top_image_clicks"":[5774.605000042357],""left_image"":""Stimuli/negative/6311.jpg"",""left_image_clicks"":[],""right_image"":""Stimuli/positive/2002.jpg"",""right_image_clicks"":[5515.755000000354]}","2021-06-05 00:47:08",99.239.35.37,"Mozilla/5.0 (Windows NT 10.0; Win64; x64) AppleWebKit/537.36 (KHTML, like Gecko) Chrome/90.0.4430.212 Safari/537.36",WebKit,Chrome,90.0.4430.212,Windows,10.0
11,1,"""","""","""","""","""",image-multi-select,36,236338,0.0-1.0-0.35,3799.380000040401,"[""Stimuli/negative/3180.jpg"",""Stimuli/neutral/SP2.jpg"",""Stimuli/neutral/D.jpg""]","[""Stimuli/neutral/SP2.jpg"",""Stimuli/neutral/D.jpg""]","{""top_image"":""Stimuli/negative/3180.jpg"",""top_image_clicks"":[],""left_image"":""Stimuli/neutral/SP2.jpg"",""left_image_clicks"":[2285.0400000461377],""right_image"":""Stimuli/neutral/D.jpg"",""right_image_clicks"":[2370.2250000205822]}","2021-06-05 00:47:08",99.239.35.37,"Mozilla/5.0 (Windows NT 10.0; Win64; x64) AppleWebKit/537.36 (KHTML, like Gecko) Chrome/90.0.4430.212 Safari/537.36",WebKit,Chrome,90.0.4430.212,Windows,10.0
11,1,"""","""","""","""","""",image-multi-select,37,239749,0.0-1.0-0.36,3402.3249999736436,"[""Stimuli/negative/L29.bmp"",""Stimuli/neutral/SP3.jpg"",""Stimuli/positive/2002.jpg""]","[""Stimuli/neutral/SP3.jpg"",""Stimuli/positive/2002.jpg""]","{""top_image"":""Stimuli/negative/L29.bmp"",""top_image_clicks"":[],""left_image"":""Stimuli/neutral/SP3.jpg"",""left_image_clicks"":[2495.9149999776855],""right_image"":""Stimuli/positive/2002.jpg"",""right_image_clicks"":[2646.6549999895506]}","2021-06-05 00:47:08",99.239.35.37,"Mozilla/5.0 (Windows NT 10.0; Win64; x64) AppleWebKit/537.36 (KHTML, like Gecko) Chrome/90.0.4430.212 Safari/537.36",WebKit,Chrome,90.0.4430.212,Windows,10.0
11,1,"""","""","""","""","""",image-multi-select,38,256843,0.0-1.0-0.37,17090.295000001788,"[""Stimuli/positive/8300.jpg"",""Stimuli/neutral/2200.jpg"",""Stimuli/positive/4689.jpg""]","[""Stimuli/positive/8300.jpg"",""Stimuli/positive/4689.jpg""]","{""top_image"":""Stimuli/positive/8300.jpg"",""top_image_clicks"":[16285.045000026003],""left_image"":""Stimuli/neutral/2200.jpg"",""left_image_clicks"":[9714.870000025257,15308.339999988675],""right_image"":""Stimuli/positive/4689.jpg"",""right_image_clicks"":[16513.9349999954]}","2021-06-05 00:47:08",99.239.35.37,"Mozilla/5.0 (Windows NT 10.0; Win64; x64) AppleWebKit/537.36 (KHTML, like Gecko) Chrome/90.0.4430.212 Safari/537.36",WebKit,Chrome,90.0.4430.212,Windows,10.0
11,1,"""","""","""","""","""",image-multi-select,39,278317,0.0-1.0-0.38,21461.989999981597,"[""Stimuli/positive/5628.jpg"",""Stimuli/neutral/SP3.jpg"",""Stimuli/negative/9041.jpg""]","[""Stimuli/neutral/SP3.jpg"",""Stimuli/negative/9041.jpg""]","{""top_image"":""Stimuli/positive/5628.jpg"",""top_image_clicks"":[],""left_image"":""Stimuli/neutral/SP3.jpg"",""left_image_clicks"":[19590.815000003204],""right_image"":""Stimuli/negative/9041.jpg"",""right_image_clicks"":[20895.33999998821]}","2021-06-05 00:47:08",99.239.35.37,"Mozilla/5.0 (Windows NT 10.0; Win64; x64) AppleWebKit/537.36 (KHTML, like Gecko) Chrome/90.0.4430.212 Safari/537.36",WebKit,Chrome,90.0.4430.212,Windows,10.0
11,1,"""","""","""","""","""",image-multi-select,40,280797,0.0-1.0-0.39,2475.9499999927357,"[""Stimuli/positive/7499.jpg"",""Stimuli/positive/5831.jpg"",""Stimuli/neutral/SP2.jpg""]","[""Stimuli/positive/7499.jpg"",""Stimuli/positive/5831.jpg""]","{""top_image"":""Stimuli/positive/7499.jpg"",""top_image_clicks"":[1951.77500002319],""left_image"":""Stimuli/positive/5831.jpg"",""left_image_clicks"":[1712.264999980107],""right_image"":""Stimuli/neutral/SP2.jpg"",""right_image_clicks"":[]}","2021-06-05 00:47:08",99.239.35.37,"Mozilla/5.0 (Windows NT 10.0; Win64; x64) AppleWebKit/537.36 (KHTML, like Gecko) Chrome/90.0.4430.212 Safari/537.36",WebKit,Chrome,90.0.4430.212,Windows,10.0
11,1,"""","""","""","""","""",image-multi-select,41,291921,0.0-1.0-0.40,11119.839999999385,"[""Stimuli/neutral/2200.jpg"",""Stimuli/negative/L29.bmp"",""Stimuli/positive/7325.jpg""]","[""Stimuli/neutral/2200.jpg"",""Stimuli/positive/7325.jpg""]","{""top_image"":""Stimuli/neutral/2200.jpg"",""top_image_clicks"":[10009.254999982659],""left_image"":""Stimuli/negative/L29.bmp"",""left_image_clicks"":[],""right_image"":""Stimuli/positive/7325.jpg"",""right_image_clicks"":[10578.204999968875]}","2021-06-05 00:47:08",99.239.35.37,"Mozilla/5.0 (Windows NT 10.0; Win64; x64) AppleWebKit/537.36 (KHTML, like Gecko) Chrome/90.0.4430.212 Safari/537.36",WebKit,Chrome,90.0.4430.212,Windows,10.0
11,1,"""","""","""","""","""",image-multi-select,42,294837,0.0-1.0-0.41,2911.3500000094064,"[""Stimuli/neutral/2394.jpg"",""Stimuli/neutral/D.jpg"",""Stimuli/positive/7325.jpg""]","[""Stimuli/neutral/2394.jpg"",""Stimuli/neutral/D.jpg""]","{""top_image"":""Stimuli/neutral/2394.jpg"",""top_image_clicks"":[1729.6949999872595],""left_image"":""Stimuli/neutral/D.jpg"",""left_image_clicks"":[2368.3949999976903],""right_image"":""Stimuli/positive/7325.jpg"",""right_image_clicks"":[]}","2021-06-05 00:47:08",99.239.35.37,"Mozilla/5.0 (Windows NT 10.0; Win64; x64) AppleWebKit/537.36 (KHTML, like Gecko) Chrome/90.0.4430.212 Safari/537.36",WebKit,Chrome,90.0.4430.212,Windows,10.0
11,1,"""","""","""","""","""",image-multi-select,43,301000,0.0-1.0-0.42,6156.35000000475,"[""Stimuli/negative/6311.jpg"",""Stimuli/positive/2002.jpg"",""Stimuli/neutral/2442.jpg""]","[""Stimuli/negative/6311.jpg"",""Stimuli/neutral/2442.jpg""]","{""top_image"":""Stimuli/negative/6311.jpg"",""top_image_clicks"":[3146.8650000169873],""left_image"":""Stimuli/positive/2002.jpg"",""left_image_clicks"":[],""right_image"":""Stimuli/neutral/2442.jpg"",""right_image_clicks"":[3418.245000008028]}","2021-06-05 00:47:08",99.239.35.37,"Mozilla/5.0 (Windows NT 10.0; Win64; x64) AppleWebKit/537.36 (KHTML, like Gecko) Chrome/90.0.4430.212 Safari/537.36",WebKit,Chrome,90.0.4430.212,Windows,10.0
11,1,"""","""","""","""","""",image-multi-select,44,310767,0.0-1.0-0.43,9764.835000038147,"[""Stimuli/negative/3180.jpg"",""Stimuli/negative/L29.bmp"",""Stimuli/positive/4689.jpg""]","[""Stimuli/negative/3180.jpg"",""Stimuli/negative/L29.bmp""]","{""top_image"":""Stimuli/negative/3180.jpg"",""top_image_clicks"":[9173.39000001084],""left_image"":""Stimuli/negative/L29.bmp"",""left_image_clicks"":[8913.89500000514],""right_image"":""Stimuli/positive/4689.jpg"",""right_image_clicks"":[]}","2021-06-05 00:47:08",99.239.35.37,"Mozilla/5.0 (Windows NT 10.0; Win64; x64) AppleWebKit/537.36 (KHTML, like Gecko) Chrome/90.0.4430.212 Safari/537.36",WebKit,Chrome,90.0.4430.212,Windows,10.0
11,1,"""","""","""","""","""",image-multi-select,45,316133,0.0-1.0-0.44,5359.690000012051,"[""Stimuli/negative/L04.bmp"",""Stimuli/positive/2395.jpg"",""Stimuli/positive/7325.jpg""]","[""Stimuli/positive/2395.jpg"",""Stimuli/positive/7325.jpg""]","{""top_image"":""Stimuli/negative/L04.bmp"",""top_image_clicks"":[],""left_image"":""Stimuli/positive/2395.jpg"",""left_image_clicks"":[4829.589999979362],""right_image"":""Stimuli/positive/7325.jpg"",""right_image_clicks"":[3815.980000013951]}","2021-06-05 00:47:08",99.239.35.37,"Mozilla/5.0 (Windows NT 10.0; Win64; x64) AppleWebKit/537.36 (KHTML, like Gecko) Chrome/90.0.4430.212 Safari/537.36",WebKit,Chrome,90.0.4430.212,Windows,10.0
11,1,"""","""","""","""","""",image-multi-select,46,322543,0.0-1.0-0.45,6407.554999983404,"[""Stimuli/neutral/194.jpg"",""Stimuli/positive/2025.jpg"",""Stimuli/positive/5628.jpg""]","[""Stimuli/positive/2025.jpg"",""Stimuli/positive/5628.jpg""]","{""top_image"":""Stimuli/neutral/194.jpg"",""top_image_clicks"":[],""left_image"":""Stimuli/positive/2025.jpg"",""left_image_clicks"":[5884.564999956638],""right_image"":""Stimuli/positive/5628.jpg"",""right_image_clicks"":[5558.5250000003725]}","2021-06-05 00:47:08",99.239.35.37,"Mozilla/5.0 (Windows NT 10.0; Win64; x64) AppleWebKit/537.36 (KHTML, like Gecko) Chrome/90.0.4430.212 Safari/537.36",WebKit,Chrome,90.0.4430.212,Windows,10.0
11,1,"""","""","""","""","""",image-multi-select,47,330868,0.0-1.0-0.46,8319.989999989048,"[""Stimuli/negative/207.jpg"",""Stimuli/negative/SF4.jpg"",""Stimuli/negative/206.jpg""]","[""Stimuli/negative/207.jpg"",""Stimuli/negative/206.jpg""]","{""top_image"":""Stimuli/negative/207.jpg"",""top_image_clicks"":[6559.639999992214],""left_image"":""Stimuli/negative/SF4.jpg"",""left_image_clicks"":[],""right_image"":""Stimuli/negative/206.jpg"",""right_image_clicks"":[6270.365000003949]}","2021-06-05 00:47:08",99.239.35.37,"Mozilla/5.0 (Windows NT 10.0; Win64; x64) AppleWebKit/537.36 (KHTML, like Gecko) Chrome/90.0.4430.212 Safari/537.36",WebKit,Chrome,90.0.4430.212,Windows,10.0
11,1,"""","""","""","""","""",image-multi-select,48,334004,0.0-1.0-0.47,3132.6700000208803,"[""Stimuli/negative/L29.bmp"",""Stimuli/neutral/SP3.jpg"",""Stimuli/negative/214.jpg""]","[""Stimuli/negative/L29.bmp"",""Stimuli/negative/214.jpg""]","{""top_image"":""Stimuli/negative/L29.bmp"",""top_image_clicks"":[2557.0949999964796],""left_image"":""Stimuli/neutral/SP3.jpg"",""left_image_clicks"":[],""right_image"":""Stimuli/negative/214.jpg"",""right_image_clicks"":[2262.9000000306405]}","2021-06-05 00:47:08",99.239.35.37,"Mozilla/5.0 (Windows NT 10.0; Win64; x64) AppleWebKit/537.36 (KHTML, like Gecko) Chrome/90.0.4430.212 Safari/537.36",WebKit,Chrome,90.0.4430.212,Windows,10.0
11,1,"""","""","""","""","""",image-multi-select,49,336548,0.0-1.0-0.48,2537.5800000038,"[""Stimuli/neutral/194.jpg"",""Stimuli/neutral/SP2.jpg"",""Stimuli/negative/6510.jpg""]","[""Stimuli/neutral/194.jpg"",""Stimuli/neutral/SP2.jpg""]","{""top_image"":""Stimuli/neutral/194.jpg"",""top_image_clicks"":[1967.6800000015646],""left_image"":""Stimuli/neutral/SP2.jpg"",""left_image_clicks"":[1765.430000028573],""right_image"":""Stimuli/negative/6510.jpg"",""right_image_clicks"":[]}","2021-06-05 00:47:08",99.239.35.37,"Mozilla/5.0 (Windows NT 10.0; Win64; x64) AppleWebKit/537.36 (KHTML, like Gecko) Chrome/90.0.4430.212 Safari/537.36",WebKit,Chrome,90.0.4430.212,Windows,10.0
11,1,"""","""","""","""","""",image-multi-select,50,339732,0.0-1.0-0.49,3182.2399999946356,"[""Stimuli/positive/2395.jpg"",""Stimuli/neutral/194.jpg"",""Stimuli/neutral/SP3.jpg""]","[""Stimuli/neutral/194.jpg"",""Stimuli/neutral/SP3.jpg""]","{""top_image"":""Stimuli/positive/2395.jpg"",""top_image_clicks"":[],""left_image"":""Stimuli/neutral/194.jpg"",""left_image_clicks"":[2660.9149999567308],""right_image"":""Stimuli/neutral/SP3.jpg"",""right_image_clicks"":[2361.319999967236]}","2021-06-05 00:47:08",99.239.35.37,"Mozilla/5.0 (Windows NT 10.0; Win64; x64) AppleWebKit/537.36 (KHTML, like Gecko) Chrome/90.0.4430.212 Safari/537.36",WebKit,Chrome,90.0.4430.212,Windows,10.0
11,1,"""","""","""","""","""",image-multi-select,51,349268,0.0-1.0-0.50,9534.244999988005,"[""Stimuli/neutral/2215.jpg"",""Stimuli/positive/2395.jpg"",""Stimuli/negative/6311.jpg""]","[""Stimuli/neutral/2215.jpg"",""Stimuli/positive/2395.jpg""]","{""top_image"":""Stimuli/neutral/2215.jpg"",""top_image_clicks"":[8597.004999988712],""left_image"":""Stimuli/positive/2395.jpg"",""left_image_clicks"":[8277.289999998175],""right_image"":""Stimuli/negative/6311.jpg"",""right_image_clicks"":[]}","2021-06-05 00:47:08",99.239.35.37,"Mozilla/5.0 (Windows NT 10.0; Win64; x64) AppleWebKit/537.36 (KHTML, like Gecko) Chrome/90.0.4430.212 Safari/537.36",WebKit,Chrome,90.0.4430.212,Windows,10.0
11,1,"""","""","""","""","""",image-multi-select,52,357872,0.0-1.0-0.51,8594.680000038352,"[""Stimuli/positive/2025.jpg"",""Stimuli/neutral/2394.jpg"",""Stimuli/neutral/SP3.jpg""]","[""Stimuli/neutral/2394.jpg"",""Stimuli/neutral/SP3.jpg""]","{""top_image"":""Stimuli/positive/2025.jpg"",""top_image_clicks"":[],""left_image"":""Stimuli/neutral/2394.jpg"",""left_image_clicks"":[6673.605000018142],""right_image"":""Stimuli/neutral/SP3.jpg"",""right_image_clicks"":[7779.329999990296]}","2021-06-05 00:47:08",99.239.35.37,"Mozilla/5.0 (Windows NT 10.0; Win64; x64) AppleWebKit/537.36 (KHTML, like Gecko) Chrome/90.0.4430.212 Safari/537.36",WebKit,Chrome,90.0.4430.212,Windows,10.0
11,1,"""","""","""","""","""",image-multi-select,53,363457,0.0-1.0-0.52,5579.685000004247,"[""Stimuli/negative/214.jpg"",""Stimuli/negative/SF4.jpg"",""Stimuli/negative/206.jpg""]","[""Stimuli/negative/214.jpg"",""Stimuli/negative/206.jpg""]","{""top_image"":""Stimuli/negative/214.jpg"",""top_image_clicks"":[4550.549999985378],""left_image"":""Stimuli/negative/SF4.jpg"",""left_image_clicks"":[],""right_image"":""Stimuli/negative/206.jpg"",""right_image_clicks"":[4918.705000018235]}","2021-06-05 00:47:08",99.239.35.37,"Mozilla/5.0 (Windows NT 10.0; Win64; x64) AppleWebKit/537.36 (KHTML, like Gecko) Chrome/90.0.4430.212 Safari/537.36",WebKit,Chrome,90.0.4430.212,Windows,10.0
11,1,"""","""","""","""","""",image-multi-select,54,370860,0.0-1.0-0.53,7394.644999993034,"[""Stimuli/positive/8300.jpg"",""Stimuli/negative/L29.bmp"",""Stimuli/neutral/SP2.jpg""]","[""Stimuli/negative/L29.bmp"",""Stimuli/neutral/SP2.jpg""]","{""top_image"":""Stimuli/positive/8300.jpg"",""top_image_clicks"":[],""left_image"":""Stimuli/negative/L29.bmp"",""left_image_clicks"":[4260.700000042561,6068.00500000827],""right_image"":""Stimuli/neutral/SP2.jpg"",""right_image_clicks"":[6482.000000018161]}","2021-06-05 00:47:08",99.239.35.37,"Mozilla/5.0 (Windows NT 10.0; Win64; x64) AppleWebKit/537.36 (KHTML, like Gecko) Chrome/90.0.4430.212 Safari/537.36",WebKit,Chrome,90.0.4430.212,Windows,10.0
11,1,"""","""","""","""","""",image-multi-select,55,377236,0.0-1.0-0.54,6370.620000001509,"[""Stimuli/neutral/2215.jpg"",""Stimuli/neutral/BP5.jpg"",""Stimuli/negative/6510.jpg""]","[""Stimuli/neutral/2215.jpg"",""Stimuli/neutral/BP5.jpg""]","{""top_image"":""Stimuli/neutral/2215.jpg"",""top_image_clicks"":[5749.269999971148],""left_image"":""Stimuli/neutral/BP5.jpg"",""left_image_clicks"":[5446.1799999699],""right_image"":""Stimuli/negative/6510.jpg"",""right_image_clicks"":[]}","2021-06-05 00:47:08",99.239.35.37,"Mozilla/5.0 (Windows NT 10.0; Win64; x64) AppleWebKit/537.36 (KHTML, like Gecko) Chrome/90.0.4430.212 Safari/537.36",WebKit,Chrome,90.0.4430.212,Windows,10.0
11,1,"""","""","""","""","""",image-multi-select,56,384407,0.0-1.0-0.55,7159.984999976587,"[""Stimuli/negative/L04.bmp"",""Stimuli/positive/2025.jpg"",""Stimuli/positive/5628.jpg""]","[""Stimuli/positive/2025.jpg"",""Stimuli/positive/5628.jpg""]","{""top_image"":""Stimuli/negative/L04.bmp"",""top_image_clicks"":[],""left_image"":""Stimuli/positive/2025.jpg"",""left_image_clicks"":[3434.6800000057556],""right_image"":""Stimuli/positive/5628.jpg"",""right_image_clicks"":[6383.325000002515]}","2021-06-05 00:47:08",99.239.35.37,"Mozilla/5.0 (Windows NT 10.0; Win64; x64) AppleWebKit/537.36 (KHTML, like Gecko) Chrome/90.0.4430.212 Safari/537.36",WebKit,Chrome,90.0.4430.212,Windows,10.0
11,1,"""","""","""","""","""",image-multi-select,57,390579,0.0-1.0-0.56,6168.080000032205,"[""Stimuli/positive/2025.jpg"",""Stimuli/negative/6311.jpg"",""Stimuli/positive/2002.jpg""]","[""Stimuli/positive/2025.jpg"",""Stimuli/positive/2002.jpg""]","{""top_image"":""Stimuli/positive/2025.jpg"",""top_image_clicks"":[5146.310000040103],""left_image"":""Stimuli/negative/6311.jpg"",""left_image_clicks"":[],""right_image"":""Stimuli/positive/2002.jpg"",""right_image_clicks"":[5506.8650000030175]}","2021-06-05 00:47:08",99.239.35.37,"Mozilla/5.0 (Windows NT 10.0; Win64; x64) AppleWebKit/537.36 (KHTML, like Gecko) Chrome/90.0.4430.212 Safari/537.36",WebKit,Chrome,90.0.4430.212,Windows,10.0
11,1,"""","""","""","""","""",image-multi-select,58,398311,0.0-1.0-0.57,7720.220000017434,"[""Stimuli/positive/7499.jpg"",""Stimuli/positive/2002.jpg"",""Stimuli/negative/206.jpg""]","[""Stimuli/positive/7499.jpg"",""Stimuli/positive/2002.jpg""]","{""top_image"":""Stimuli/positive/7499.jpg"",""top_image_clicks"":[4271.2049999972805],""left_image"":""Stimuli/positive/2002.jpg"",""left_image_clicks"":[5534.845000016503],""right_image"":""Stimuli/negative/206.jpg"",""right_image_clicks"":[]}","2021-06-05 00:47:08",99.239.35.37,"Mozilla/5.0 (Windows NT 10.0; Win64; x64) AppleWebKit/537.36 (KHTML, like Gecko) Chrome/90.0.4430.212 Safari/537.36",WebKit,Chrome,90.0.4430.212,Windows,10.0
11,1,"""","""","""","""","""",image-multi-select,59,405013,0.0-1.0-0.58,6697.805000003427,"[""Stimuli/negative/206.jpg"",""Stimuli/negative/6510.jpg"",""Stimuli/positive/7325.jpg""]","[""Stimuli/negative/206.jpg"",""Stimuli/negative/6510.jpg""]","{""top_image"":""Stimuli/negative/206.jpg"",""top_image_clicks"":[1631.7000000271946,4221.765000023879],""left_image"":""Stimuli/negative/6510.jpg"",""left_image_clicks"":[4812.734999984968],""right_image"":""Stimuli/positive/7325.jpg"",""right_image_clicks"":[2112.039999978151]}","2021-06-05 00:47:08",99.239.35.37,"Mozilla/5.0 (Windows NT 10.0; Win64; x64) AppleWebKit/537.36 (KHTML, like Gecko) Chrome/90.0.4430.212 Safari/537.36",WebKit,Chrome,90.0.4430.212,Windows,10.0
11,1,"""","""","""","""","""",image-multi-select,60,436162,0.0-1.0-0.59,31139.620000030845,"[""Stimuli/positive/7499.jpg"",""Stimuli/negative/207.jpg"",""Stimuli/neutral/N05.bmp""]","[""Stimuli/positive/7499.jpg"",""Stimuli/neutral/N05.bmp""]","{""top_image"":""Stimuli/positive/7499.jpg"",""top_image_clicks"":[30499.40999998944],""left_image"":""Stimuli/negative/207.jpg"",""left_image_clicks"":[],""right_image"":""Stimuli/neutral/N05.bmp"",""right_image_clicks"":[30267.460000002757]}","2021-06-05 00:47:08",99.239.35.37,"Mozilla/5.0 (Windows NT 10.0; Win64; x64) AppleWebKit/537.36 (KHTML, like Gecko) Chrome/90.0.4430.212 Safari/537.36",WebKit,Chrome,90.0.4430.212,Windows,10.0
11,1,"""","""","""","""","""",image-multi-select,61,439756,0.0-1.0-0.60,3590.115000028163,"[""Stimuli/negative/214.jpg"",""Stimuli/neutral/N05.bmp"",""Stimuli/negative/9041.jpg""]","[""Stimuli/negative/214.jpg"",""Stimuli/negative/9041.jpg""]","{""top_image"":""Stimuli/negative/214.jpg"",""top_image_clicks"":[2983.040000020992],""left_image"":""Stimuli/neutral/N05.bmp"",""left_image_clicks"":[],""right_image"":""Stimuli/negative/9041.jpg"",""right_image_clicks"":[2801.58000002848]}","2021-06-05 00:47:08",99.239.35.37,"Mozilla/5.0 (Windows NT 10.0; Win64; x64) AppleWebKit/537.36 (KHTML, like Gecko) Chrome/90.0.4430.212 Safari/537.36",WebKit,Chrome,90.0.4430.212,Windows,10.0
11,1,"""","""","""","""","""",image-multi-select,62,442739,0.0-1.0-0.61,2970.2999999863096,"[""Stimuli/positive/7499.jpg"",""Stimuli/positive/b.jpg"",""Stimuli/positive/7325.jpg""]","[""Stimuli/positive/b.jpg"",""Stimuli/positive/7325.jpg""]","{""top_image"":""Stimuli/positive/7499.jpg"",""top_image_clicks"":[],""left_image"":""Stimuli/positive/b.jpg"",""left_image_clicks"":[1566.1499999696389],""right_image"":""Stimuli/positive/7325.jpg"",""right_image_clicks"":[2434.034999983851]}","2021-06-05 00:47:08",99.239.35.37,"Mozilla/5.0 (Windows NT 10.0; Win64; x64) AppleWebKit/537.36 (KHTML, like Gecko) Chrome/90.0.4430.212 Safari/537.36",WebKit,Chrome,90.0.4430.212,Windows,10.0
11,1,"""","""","""","""","""",image-multi-select,63,457930,0.0-1.0-0.62,15187.780000036582,"[""Stimuli/positive/7499.jpg"",""Stimuli/negative/3180.jpg"",""Stimuli/positive/7325.jpg""]","[""Stimuli/negative/3180.jpg"",""Stimuli/positive/7325.jpg""]","{""top_image"":""Stimuli/positive/7499.jpg"",""top_image_clicks"":[12305.975000024773],""left_image"":""Stimuli/negative/3180.jpg"",""left_image_clicks"":[12088.0350000225],""right_image"":""Stimuli/positive/7325.jpg"",""right_image_clicks"":[13869.535000005271,14809.219999995548]}","2021-06-05 00:47:08",99.239.35.37,"Mozilla/5.0 (Windows NT 10.0; Win64; x64) AppleWebKit/537.36 (KHTML, like Gecko) Chrome/90.0.4430.212 Safari/537.36",WebKit,Chrome,90.0.4430.212,Windows,10.0
11,1,"""","""","""","""","""",image-multi-select,64,468400,0.0-1.0-0.63,10465.534999966621,"[""Stimuli/positive/8300.jpg"",""Stimuli/negative/207.jpg"",""Stimuli/negative/206.jpg""]","[""Stimuli/negative/207.jpg"",""Stimuli/negative/206.jpg""]","{""top_image"":""Stimuli/positive/8300.jpg"",""top_image_clicks"":[],""left_image"":""Stimuli/negative/207.jpg"",""left_image_clicks"":[9669.05999998562],""right_image"":""Stimuli/negative/206.jpg"",""right_image_clicks"":[9918.564999999944]}","2021-06-05 00:47:08",99.239.35.37,"Mozilla/5.0 (Windows NT 10.0; Win64; x64) AppleWebKit/537.36 (KHTML, like Gecko) Chrome/90.0.4430.212 Safari/537.36",WebKit,Chrome,90.0.4430.212,Windows,10.0
11,1,"""","""","""","""","""",image-multi-select,65,471007,0.0-1.0-0.64,2603.155000018887,"[""Stimuli/positive/4689.jpg"",""Stimuli/neutral/SP2.jpg"",""Stimuli/positive/2002.jpg""]","[""Stimuli/neutral/SP2.jpg"",""Stimuli/positive/2002.jpg""]","{""top_image"":""Stimuli/positive/4689.jpg"",""top_image_clicks"":[],""left_image"":""Stimuli/neutral/SP2.jpg"",""left_image_clicks"":[1836.0300000058487],""right_image"":""Stimuli/positive/2002.jpg"",""right_image_clicks"":[2179.200000013225]}","2021-06-05 00:47:08",99.239.35.37,"Mozilla/5.0 (Windows NT 10.0; Win64; x64) AppleWebKit/537.36 (KHTML, like Gecko) Chrome/90.0.4430.212 Safari/537.36",WebKit,Chrome,90.0.4430.212,Windows,10.0
11,1,"""","""","""","""","""",image-multi-select,66,482177,0.0-1.0-0.65,11164.934999949764,"[""Stimuli/positive/2395.jpg"",""Stimuli/neutral/SP3.jpg"",""Stimuli/negative/6510.jpg""]","[""Stimuli/positive/2395.jpg"",""Stimuli/neutral/SP3.jpg""]","{""top_image"":""Stimuli/positive/2395.jpg"",""top_image_clicks"":[10395.809999958146],""left_image"":""Stimuli/neutral/SP3.jpg"",""left_image_clicks"":[10200.699999986682],""right_image"":""Stimuli/negative/6510.jpg"",""right_image_clicks"":[]}","2021-06-05 00:47:08",99.239.35.37,"Mozilla/5.0 (Windows NT 10.0; Win64; x64) AppleWebKit/537.36 (KHTML, like Gecko) Chrome/90.0.4430.212 Safari/537.36",WebKit,Chrome,90.0.4430.212,Windows,10.0
11,1,"""","""","""","""","""",image-multi-select,67,484093,0.0-1.0-0.66,1914.2800000263378,"[""Stimuli/neutral/BP5.jpg"",""Stimuli/neutral/2200.jpg"",""Stimuli/positive/b.jpg""]","[""Stimuli/neutral/BP5.jpg"",""Stimuli/neutral/2200.jpg""]","{""top_image"":""Stimuli/neutral/BP5.jpg"",""top_image_clicks"":[1387.0600000373088],""left_image"":""Stimuli/neutral/2200.jpg"",""left_image_clicks"":[1190.520000003744],""right_image"":""Stimuli/positive/b.jpg"",""right_image_clicks"":[]}","2021-06-05 00:47:08",99.239.35.37,"Mozilla/5.0 (Windows NT 10.0; Win64; x64) AppleWebKit/537.36 (KHTML, like Gecko) Chrome/90.0.4430.212 Safari/537.36",WebKit,Chrome,90.0.4430.212,Windows,10.0
11,1,"""","""","""","""","""",image-multi-select,68,487461,0.0-1.0-0.67,3364.1349999816157,"[""Stimuli/positive/7499.jpg"",""Stimuli/negative/207.jpg"",""Stimuli/negative/214.jpg""]","[""Stimuli/negative/207.jpg"",""Stimuli/negative/214.jpg""]","{""top_image"":""Stimuli/positive/7499.jpg"",""top_image_clicks"":[],""left_image"":""Stimuli/negative/207.jpg"",""left_image_clicks"":[2903.8500000024214],""right_image"":""Stimuli/negative/214.jpg"",""right_image_clicks"":[2072.9750000173226]}","2021-06-05 00:47:08",99.239.35.37,"Mozilla/5.0 (Windows NT 10.0; Win64; x64) AppleWebKit/537.36 (KHTML, like Gecko) Chrome/90.0.4430.212 Safari/537.36",WebKit,Chrome,90.0.4430.212,Windows,10.0
11,1,"""","""","""","""","""",image-multi-select,69,490052,0.0-1.0-0.68,2589.0050000161864,"[""Stimuli/neutral/2215.jpg"",""Stimuli/negative/3180.jpg"",""Stimuli/neutral/SP2.jpg""]","[""Stimuli/neutral/2215.jpg"",""Stimuli/neutral/SP2.jpg""]","{""top_image"":""Stimuli/neutral/2215.jpg"",""top_image_clicks"":[2058.309999993071],""left_image"":""Stimuli/negative/3180.jpg"",""left_image_clicks"":[],""right_image"":""Stimuli/neutral/SP2.jpg"",""right_image_clicks"":[1809.430000022985]}","2021-06-05 00:47:08",99.239.35.37,"Mozilla/5.0 (Windows NT 10.0; Win64; x64) AppleWebKit/537.36 (KHTML, like Gecko) Chrome/90.0.4430.212 Safari/537.36",WebKit,Chrome,90.0.4430.212,Windows,10.0
11,1,"""","""","""","""","""",image-multi-select,70,494081,0.0-1.0-0.69,4025.4950000089593,"[""Stimuli/neutral/BP5.jpg"",""Stimuli/negative/206.jpg"",""Stimuli/negative/9041.jpg""]","[""Stimuli/neutral/BP5.jpg"",""Stimuli/negative/206.jpg""]","{""top_image"":""Stimuli/neutral/BP5.jpg"",""top_image_clicks"":[2278.8650000002235],""left_image"":""Stimuli/negative/206.jpg"",""left_image_clicks"":[3414.4800000358373],""right_image"":""Stimuli/negative/9041.jpg"",""right_image_clicks"":[]}","2021-06-05 00:47:08",99.239.35.37,"Mozilla/5.0 (Windows NT 10.0; Win64; x64) AppleWebKit/537.36 (KHTML, like Gecko) Chrome/90.0.4430.212 Safari/537.36",WebKit,Chrome,90.0.4430.212,Windows,10.0
11,1,"""","""","""","""","""",image-multi-select,71,501702,0.0-1.0-0.70,7618.049999990035,"[""Stimuli/positive/5628.jpg"",""Stimuli/positive/4689.jpg"",""Stimuli/negative/214.jpg""]","[""Stimuli/positive/5628.jpg"",""Stimuli/positive/4689.jpg""]","{""top_image"":""Stimuli/positive/5628.jpg"",""top_image_clicks"":[6684.484999976121],""left_image"":""Stimuli/positive/4689.jpg"",""left_image_clicks"":[7051.38999997871],""right_image"":""Stimuli/negative/214.jpg"",""right_image_clicks"":[]}","2021-06-05 00:47:08",99.239.35.37,"Mozilla/5.0 (Windows NT 10.0; Win64; x64) AppleWebKit/537.36 (KHTML, like Gecko) Chrome/90.0.4430.212 Safari/537.36",WebKit,Chrome,90.0.4430.212,Windows,10.0
11,1,"""","""","""","""","""",image-multi-select,72,504950,0.0-1.0-0.71,3235.759999952279,"[""Stimuli/negative/L04.bmp"",""Stimuli/neutral/194.jpg"",""Stimuli/positive/2002.jpg""]","[""Stimuli/neutral/194.jpg"",""Stimuli/positive/2002.jpg""]","{""top_image"":""Stimuli/negative/L04.bmp"",""top_image_clicks"":[],""left_image"":""Stimuli/neutral/194.jpg"",""left_image_clicks"":[2594.7349999914877],""right_image"":""Stimuli/positive/2002.jpg"",""right_image_clicks"":[2280.989999999292]}","2021-06-05 00:47:08",99.239.35.37,"Mozilla/5.0 (Windows NT 10.0; Win64; x64) AppleWebKit/537.36 (KHTML, like Gecko) Chrome/90.0.4430.212 Safari/537.36",WebKit,Chrome,90.0.4430.212,Windows,10.0
11,1,"""","""","""","""","""",image-multi-select,73,533606,0.0-1.0-0.72,28653.324999962933,"[""Stimuli/negative/L29.bmp"",""Stimuli/neutral/SP2.jpg"",""Stimuli/negative/206.jpg""]","[""Stimuli/negative/L29.bmp"",""Stimuli/negative/206.jpg""]","{""top_image"":""Stimuli/negative/L29.bmp"",""top_image_clicks"":[19050.93999998644],""left_image"":""Stimuli/neutral/SP2.jpg"",""left_image_clicks"":[9750.729999970645],""right_image"":""Stimuli/negative/206.jpg"",""right_image_clicks"":[9250.97499997355]}","2021-06-05 00:47:08",99.239.35.37,"Mozilla/5.0 (Windows NT 10.0; Win64; x64) AppleWebKit/537.36 (KHTML, like Gecko) Chrome/90.0.4430.212 Safari/537.36",WebKit,Chrome,90.0.4430.212,Windows,10.0
11,1,"""","""","""","""","""",image-multi-select,74,537809,0.0-1.0-0.73,4197.155000001658,"[""Stimuli/positive/7499.jpg"",""Stimuli/positive/2002.jpg"",""Stimuli/negative/6510.jpg""]","[""Stimuli/positive/7499.jpg"",""Stimuli/positive/2002.jpg""]","{""top_image"":""Stimuli/positive/7499.jpg"",""top_image_clicks"":[2518.580000032671],""left_image"":""Stimuli/positive/2002.jpg"",""left_image_clicks"":[3229.014999989886],""right_image"":""Stimuli/negative/6510.jpg"",""right_image_clicks"":[]}","2021-06-05 00:47:08",99.239.35.37,"Mozilla/5.0 (Windows NT 10.0; Win64; x64) AppleWebKit/537.36 (KHTML, like Gecko) Chrome/90.0.4430.212 Safari/537.36",WebKit,Chrome,90.0.4430.212,Windows,10.0
11,1,"""","""","""","""","""",image-multi-select,75,542095,0.0-1.0-0.74,4281.370000040624,"[""Stimuli/positive/8300.jpg"",""Stimuli/positive/4689.jpg"",""Stimuli/negative/214.jpg""]","[""Stimuli/positive/8300.jpg"",""Stimuli/positive/4689.jpg""]","{""top_image"":""Stimuli/positive/8300.jpg"",""top_image_clicks"":[3652.8250000556],""left_image"":""Stimuli/positive/4689.jpg"",""left_image_clicks"":[3353.000000002794],""right_image"":""Stimuli/negative/214.jpg"",""right_image_clicks"":[2090.1250000461005]}","2021-06-05 00:47:08",99.239.35.37,"Mozilla/5.0 (Windows NT 10.0; Win64; x64) AppleWebKit/537.36 (KHTML, like Gecko) Chrome/90.0.4430.212 Safari/537.36",WebKit,Chrome,90.0.4430.212,Windows,10.0
11,1,"""","""","""","""","""",image-multi-select,76,565335,0.0-1.0-0.75,23226.940000022296,"[""Stimuli/positive/5628.jpg"",""Stimuli/neutral/SP3.jpg"",""Stimuli/neutral/D.jpg""]","[""Stimuli/neutral/SP3.jpg"",""Stimuli/neutral/D.jpg""]","{""top_image"":""Stimuli/positive/5628.jpg"",""top_image_clicks"":[3574.0399999776855],""left_image"":""Stimuli/neutral/SP3.jpg"",""left_image_clicks"":[19692.619999987073],""right_image"":""Stimuli/neutral/D.jpg"",""right_image_clicks"":[4467.705000017304,18168.439999979455]}","2021-06-05 00:47:08",99.239.35.37,"Mozilla/5.0 (Windows NT 10.0; Win64; x64) AppleWebKit/537.36 (KHTML, like Gecko) Chrome/90.0.4430.212 Safari/537.36",WebKit,Chrome,90.0.4430.212,Windows,10.0
11,1,"""","""","""","""","""",image-multi-select,77,569921,0.0-1.0-0.76,4581.689999962691,"[""Stimuli/negative/207.jpg"",""Stimuli/positive/5628.jpg"",""Stimuli/positive/b.jpg""]","[""Stimuli/positive/5628.jpg"",""Stimuli/positive/b.jpg""]","{""top_image"":""Stimuli/negative/207.jpg"",""top_image_clicks"":[],""left_image"":""Stimuli/positive/5628.jpg"",""left_image_clicks"":[3253.1549999839626],""right_image"":""Stimuli/positive/b.jpg"",""right_image_clicks"":[2687.709999969229]}","2021-06-05 00:47:08",99.239.35.37,"Mozilla/5.0 (Windows NT 10.0; Win64; x64) AppleWebKit/537.36 (KHTML, like Gecko) Chrome/90.0.4430.212 Safari/537.36",WebKit,Chrome,90.0.4430.212,Windows,10.0
11,1,"""","""","""","""","""",image-multi-select,78,573483,0.0-1.0-0.77,3549.544999958016,"[""Stimuli/negative/214.jpg"",""Stimuli/positive/2002.jpg"",""Stimuli/neutral/2442.jpg""]","[""Stimuli/positive/2002.jpg"",""Stimuli/neutral/2442.jpg""]","{""top_image"":""Stimuli/negative/214.jpg"",""top_image_clicks"":[],""left_image"":""Stimuli/positive/2002.jpg"",""left_image_clicks"":[2550.1749999821186],""right_image"":""Stimuli/neutral/2442.jpg"",""right_image_clicks"":[2921.410000009928]}","2021-06-05 00:47:08",99.239.35.37,"Mozilla/5.0 (Windows NT 10.0; Win64; x64) AppleWebKit/537.36 (KHTML, like Gecko) Chrome/90.0.4430.212 Safari/537.36",WebKit,Chrome,90.0.4430.212,Windows,10.0
11,1,"""","""","""","""","""",image-multi-select,79,578651,0.0-1.0-0.78,5164.235000032932,"[""Stimuli/positive/8300.jpg"",""Stimuli/negative/207.jpg"",""Stimuli/positive/5628.jpg""]","[""Stimuli/positive/8300.jpg"",""Stimuli/positive/5628.jpg""]","{""top_image"":""Stimuli/positive/8300.jpg"",""top_image_clicks"":[4156.989999988582],""left_image"":""Stimuli/negative/207.jpg"",""left_image_clicks"":[],""right_image"":""Stimuli/positive/5628.jpg"",""right_image_clicks"":[4598.014999995939]}","2021-06-05 00:47:08",99.239.35.37,"Mozilla/5.0 (Windows NT 10.0; Win64; x64) AppleWebKit/537.36 (KHTML, like Gecko) Chrome/90.0.4430.212 Safari/537.36",WebKit,Chrome,90.0.4430.212,Windows,10.0
11,1,"""","""","""","""","""",image-multi-select,80,586916,0.0-1.0-0.79,8251.939999987371,"[""Stimuli/neutral/2215.jpg"",""Stimuli/negative/L29.bmp"",""Stimuli/positive/2002.jpg""]","[""Stimuli/neutral/2215.jpg"",""Stimuli/positive/2002.jpg""]","{""top_image"":""Stimuli/neutral/2215.jpg"",""top_image_clicks"":[3324.4849999900907],""left_image"":""Stimuli/negative/L29.bmp"",""left_image_clicks"":[],""right_image"":""Stimuli/positive/2002.jpg"",""right_image_clicks"":[3072.7349999942817]}","2021-06-05 00:47:08",99.239.35.37,"Mozilla/5.0 (Windows NT 10.0; Win64; x64) AppleWebKit/537.36 (KHTML, like Gecko) Chrome/90.0.4430.212 Safari/537.36",WebKit,Chrome,90.0.4430.212,Windows,10.0
11,1,"""","""","""","""","""",image-multi-select,81,595370,0.0-1.0-0.80,8449.100000027101,"[""Stimuli/positive/7499.jpg"",""Stimuli/neutral/2200.jpg"",""Stimuli/negative/L29.bmp""]","[""Stimuli/positive/7499.jpg"",""Stimuli/neutral/2200.jpg""]","{""top_image"":""Stimuli/positive/7499.jpg"",""top_image_clicks"":[6659.5349999843165],""left_image"":""Stimuli/neutral/2200.jpg"",""left_image_clicks"":[5064.465000003111],""right_image"":""Stimuli/negative/L29.bmp"",""right_image_clicks"":[]}","2021-06-05 00:47:08",99.239.35.37,"Mozilla/5.0 (Windows NT 10.0; Win64; x64) AppleWebKit/537.36 (KHTML, like Gecko) Chrome/90.0.4430.212 Safari/537.36",WebKit,Chrome,90.0.4430.212,Windows,10.0
11,1,"""","""","""","""","""",image-multi-select,82,600479,0.0-1.0-0.81,5093.414999952074,"[""Stimuli/negative/207.jpg"",""Stimuli/negative/L29.bmp"",""Stimuli/neutral/2442.jpg""]","[""Stimuli/negative/207.jpg"",""Stimuli/negative/L29.bmp""]","{""top_image"":""Stimuli/negative/207.jpg"",""top_image_clicks"":[4371.039999998175],""left_image"":""Stimuli/negative/L29.bmp"",""left_image_clicks"":[3384.9399999598972],""right_image"":""Stimuli/neutral/2442.jpg"",""right_image_clicks"":[2450.9049999760464]}","2021-06-05 00:47:08",99.239.35.37,"Mozilla/5.0 (Windows NT 10.0; Win64; x64) AppleWebKit/537.36 (KHTML, like Gecko) Chrome/90.0.4430.212 Safari/537.36",WebKit,Chrome,90.0.4430.212,Windows,10.0
11,1,"""","""","""","""","""",image-multi-select,83,608240,0.0-1.0-0.82,7754.795000015292,"[""Stimuli/neutral/2200.jpg"",""Stimuli/positive/2002.jpg"",""Stimuli/neutral/D.jpg""]","[""Stimuli/neutral/2200.jpg"",""Stimuli/neutral/D.jpg""]","{""top_image"":""Stimuli/neutral/2200.jpg"",""top_image_clicks"":[1355.6050000479445,2591.7600000393577],""left_image"":""Stimuli/positive/2002.jpg"",""left_image_clicks"":[],""right_image"":""Stimuli/neutral/D.jpg"",""right_image_clicks"":[3709.690000046976]}","2021-06-05 00:47:08",99.239.35.37,"Mozilla/5.0 (Windows NT 10.0; Win64; x64) AppleWebKit/537.36 (KHTML, like Gecko) Chrome/90.0.4430.212 Safari/537.36",WebKit,Chrome,90.0.4430.212,Windows,10.0
11,1,"""","""","""","""","""",image-multi-select,84,612207,0.0-1.0-0.83,3953.1300000380725,"[""Stimuli/neutral/194.jpg"",""Stimuli/neutral/SP3.jpg"",""Stimuli/positive/2002.jpg""]","[""Stimuli/neutral/194.jpg"",""Stimuli/neutral/SP3.jpg""]","{""top_image"":""Stimuli/neutral/194.jpg"",""top_image_clicks"":[3279.5899999910034],""left_image"":""Stimuli/neutral/SP3.jpg"",""left_image_clicks"":[3000.690000015311],""right_image"":""Stimuli/positive/2002.jpg"",""right_image_clicks"":[]}","2021-06-05 00:47:08",99.239.35.37,"Mozilla/5.0 (Windows NT 10.0; Win64; x64) AppleWebKit/537.36 (KHTML, like Gecko) Chrome/90.0.4430.212 Safari/537.36",WebKit,Chrome,90.0.4430.212,Windows,10.0
11,1,"""","""","""","""","""",image-multi-select,85,615691,0.0-1.0-0.84,3480.2550000022165,"[""Stimuli/positive/5628.jpg"",""Stimuli/positive/b.jpg"",""Stimuli/negative/9041.jpg""]","[""Stimuli/positive/5628.jpg"",""Stimuli/positive/b.jpg""]","{""top_image"":""Stimuli/positive/5628.jpg"",""top_image_clicks"":[2710.865000030026],""left_image"":""Stimuli/positive/b.jpg"",""left_image_clicks"":[2306.8199999979697],""right_image"":""Stimuli/negative/9041.jpg"",""right_image_clicks"":[]}","2021-06-05 00:47:08",99.239.35.37,"Mozilla/5.0 (Windows NT 10.0; Win64; x64) AppleWebKit/537.36 (KHTML, like Gecko) Chrome/90.0.4430.212 Safari/537.36",WebKit,Chrome,90.0.4430.212,Windows,10.0
11,1,"""","""","""","""","""",image-multi-select,86,619748,0.0-1.0-0.85,4044.0850000013597,"[""Stimuli/negative/207.jpg"",""Stimuli/negative/6510.jpg"",""Stimuli/positive/7325.jpg""]","[""Stimuli/negative/207.jpg"",""Stimuli/negative/6510.jpg""]","{""top_image"":""Stimuli/negative/207.jpg"",""top_image_clicks"":[2984.409999975469],""left_image"":""Stimuli/negative/6510.jpg"",""left_image_clicks"":[3362.5499999616295],""right_image"":""Stimuli/positive/7325.jpg"",""right_image_clicks"":[1233.5699999821372]}","2021-06-05 00:47:08",99.239.35.37,"Mozilla/5.0 (Windows NT 10.0; Win64; x64) AppleWebKit/537.36 (KHTML, like Gecko) Chrome/90.0.4430.212 Safari/537.36",WebKit,Chrome,90.0.4430.212,Windows,10.0
11,1,"""","""","""","""","""",image-multi-select,87,622620,0.0-1.0-0.86,2867.339999997057,"[""Stimuli/negative/L29.bmp"",""Stimuli/positive/4689.jpg"",""Stimuli/positive/b.jpg""]","[""Stimuli/positive/4689.jpg"",""Stimuli/positive/b.jpg""]","{""top_image"":""Stimuli/negative/L29.bmp"",""top_image_clicks"":[],""left_image"":""Stimuli/positive/4689.jpg"",""left_image_clicks"":[1949.4650000124238],""right_image"":""Stimuli/positive/b.jpg"",""right_image_clicks"":[2345.6350000342354]}","2021-06-05 00:47:08",99.239.35.37,"Mozilla/5.0 (Windows NT 10.0; Win64; x64) AppleWebKit/537.36 (KHTML, like Gecko) Chrome/90.0.4430.212 Safari/537.36",WebKit,Chrome,90.0.4430.212,Windows,10.0
11,1,"""","""","""","""","""",image-multi-select,88,626231,0.0-1.0-0.87,3601.3050000183284,"[""Stimuli/neutral/BP5.jpg"",""Stimuli/neutral/2394.jpg"",""Stimuli/negative/6311.jpg""]","[""Stimuli/neutral/BP5.jpg"",""Stimuli/neutral/2394.jpg""]","{""top_image"":""Stimuli/neutral/BP5.jpg"",""top_image_clicks"":[2365.2149999979883],""left_image"":""Stimuli/neutral/2394.jpg"",""left_image_clicks"":[2026.1649999883957],""right_image"":""Stimuli/negative/6311.jpg"",""right_image_clicks"":[]}","2021-06-05 00:47:08",99.239.35.37,"Mozilla/5.0 (Windows NT 10.0; Win64; x64) AppleWebKit/537.36 (KHTML, like Gecko) Chrome/90.0.4430.212 Safari/537.36",WebKit,Chrome,90.0.4430.212,Windows,10.0
11,1,"""","""","""","""","""",image-multi-select,89,629183,0.0-1.0-0.88,2948.3600000385195,"[""Stimuli/negative/207.jpg"",""Stimuli/positive/2002.jpg"",""Stimuli/negative/9041.jpg""]","[""Stimuli/negative/207.jpg"",""Stimuli/negative/9041.jpg""]","{""top_image"":""Stimuli/negative/207.jpg"",""top_image_clicks"":[1590.4500000178814],""left_image"":""Stimuli/positive/2002.jpg"",""left_image_clicks"":[],""right_image"":""Stimuli/negative/9041.jpg"",""right_image_clicks"":[2307.440000004135]}","2021-06-05 00:47:08",99.239.35.37,"Mozilla/5.0 (Windows NT 10.0; Win64; x64) AppleWebKit/537.36 (KHTML, like Gecko) Chrome/90.0.4430.212 Safari/537.36",WebKit,Chrome,90.0.4430.212,Windows,10.0
11,1,"""","""","""","""","""",image-multi-select,90,640929,0.0-1.0-0.89,11729.839999985415,"[""Stimuli/neutral/BP5.jpg"",""Stimuli/positive/4689.jpg"",""Stimuli/negative/9041.jpg""]","[""Stimuli/neutral/BP5.jpg"",""Stimuli/negative/9041.jpg""]","{""top_image"":""Stimuli/neutral/BP5.jpg"",""top_image_clicks"":[1747.9249999742024,5465.639999951236],""left_image"":""Stimuli/positive/4689.jpg"",""left_image_clicks"":[],""right_image"":""Stimuli/negative/9041.jpg"",""right_image_clicks"":[9360.964999999851]}","2021-06-05 00:47:08",99.239.35.37,"Mozilla/5.0 (Windows NT 10.0; Win64; x64) AppleWebKit/537.36 (KHTML, like Gecko) Chrome/90.0.4430.212 Safari/537.36",WebKit,Chrome,90.0.4430.212,Windows,10.0
11,1,"""","""","""","""","""",image-multi-select,91,645012,0.0-1.0-0.90,4078.2250000047497,"[""Stimuli/positive/8300.jpg"",""Stimuli/negative/L29.bmp"",""Stimuli/negative/6311.jpg""]","[""Stimuli/negative/L29.bmp"",""Stimuli/negative/6311.jpg""]","{""top_image"":""Stimuli/positive/8300.jpg"",""top_image_clicks"":[],""left_image"":""Stimuli/negative/L29.bmp"",""left_image_clicks"":[3601.115000026766],""right_image"":""Stimuli/negative/6311.jpg"",""right_image_clicks"":[3132.5550000183284]}","2021-06-05 00:47:08",99.239.35.37,"Mozilla/5.0 (Windows NT 10.0; Win64; x64) AppleWebKit/537.36 (KHTML, like Gecko) Chrome/90.0.4430.212 Safari/537.36",WebKit,Chrome,90.0.4430.212,Windows,10.0
11,1,"""","""","""","""","""",image-multi-select,92,668953,0.0-1.0-0.91,23927.094999991823,"[""Stimuli/neutral/2215.jpg"",""Stimuli/positive/8300.jpg"",""Stimuli/negative/L29.bmp""]","[""Stimuli/neutral/2215.jpg"",""Stimuli/positive/8300.jpg""]","{""top_image"":""Stimuli/neutral/2215.jpg"",""top_image_clicks"":[22372.16999998782],""left_image"":""Stimuli/positive/8300.jpg"",""left_image_clicks"":[21375.479999987874],""right_image"":""Stimuli/negative/L29.bmp"",""right_image_clicks"":[]}","2021-06-05 00:47:08",99.239.35.37,"Mozilla/5.0 (Windows NT 10.0; Win64; x64) AppleWebKit/537.36 (KHTML, like Gecko) Chrome/90.0.4430.212 Safari/537.36",WebKit,Chrome,90.0.4430.212,Windows,10.0
11,1,"""","""","""","""","""",image-multi-select,93,674686,0.0-1.0-0.92,5729.194999963511,"[""Stimuli/negative/L04.bmp"",""Stimuli/positive/5628.jpg"",""Stimuli/negative/6311.jpg""]","[""Stimuli/negative/L04.bmp"",""Stimuli/negative/6311.jpg""]","{""top_image"":""Stimuli/negative/L04.bmp"",""top_image_clicks"":[5170.594999974128],""left_image"":""Stimuli/positive/5628.jpg"",""left_image_clicks"":[4277.040000015404],""right_image"":""Stimuli/negative/6311.jpg"",""right_image_clicks"":[4941.850000002887]}","2021-06-05 00:47:08",99.239.35.37,"Mozilla/5.0 (Windows NT 10.0; Win64; x64) AppleWebKit/537.36 (KHTML, like Gecko) Chrome/90.0.4430.212 Safari/537.36",WebKit,Chrome,90.0.4430.212,Windows,10.0
11,1,"""","""","""","""","""",image-multi-select,94,678608,0.0-1.0-0.93,3906.8150000530295,"[""Stimuli/neutral/2215.jpg"",""Stimuli/neutral/194.jpg"",""Stimuli/positive/2025.jpg""]","[""Stimuli/neutral/2215.jpg"",""Stimuli/neutral/194.jpg""]","{""top_image"":""Stimuli/neutral/2215.jpg"",""top_image_clicks"":[3352.8450000449084],""left_image"":""Stimuli/neutral/194.jpg"",""left_image_clicks"":[3130.78000000678],""right_image"":""Stimuli/positive/2025.jpg"",""right_image_clicks"":[]}","2021-06-05 00:47:08",99.239.35.37,"Mozilla/5.0 (Windows NT 10.0; Win64; x64) AppleWebKit/537.36 (KHTML, like Gecko) Chrome/90.0.4430.212 Safari/537.36",WebKit,Chrome,90.0.4430.212,Windows,10.0
11,1,"""","""","""","""","""",image-multi-select,95,686403,0.0-1.0-0.94,7790.455000009388,"[""Stimuli/positive/7499.jpg"",""Stimuli/positive/5831.jpg"",""Stimuli/neutral/2442.jpg""]","[""Stimuli/positive/7499.jpg"",""Stimuli/positive/5831.jpg""]","{""top_image"":""Stimuli/positive/7499.jpg"",""top_image_clicks"":[1667.7999999956228,7024.355000001378],""left_image"":""Stimuli/positive/5831.jpg"",""left_image_clicks"":[7253.640000009909],""right_image"":""Stimuli/neutral/2442.jpg"",""right_image_clicks"":[]}","2021-06-05 00:47:08",99.239.35.37,"Mozilla/5.0 (Windows NT 10.0; Win64; x64) AppleWebKit/537.36 (KHTML, like Gecko) Chrome/90.0.4430.212 Safari/537.36",WebKit,Chrome,90.0.4430.212,Windows,10.0
11,1,"""","""","""","""","""",image-multi-select,96,690490,0.0-1.0-0.95,4073.6800000304356,"[""Stimuli/negative/L04.bmp"",""Stimuli/positive/8300.jpg"",""Stimuli/negative/6311.jpg""]","[""Stimuli/negative/L04.bmp"",""Stimuli/negative/6311.jpg""]","{""top_image"":""Stimuli/negative/L04.bmp"",""top_image_clicks"":[1613.5099999955855,3514.580000017304],""left_image"":""Stimuli/positive/8300.jpg"",""left_image_clicks"":[],""right_image"":""Stimuli/negative/6311.jpg"",""right_image_clicks"":[2772.8400000487454]}","2021-06-05 00:47:08",99.239.35.37,"Mozilla/5.0 (Windows NT 10.0; Win64; x64) AppleWebKit/537.36 (KHTML, like Gecko) Chrome/90.0.4430.212 Safari/537.36",WebKit,Chrome,90.0.4430.212,Windows,10.0
11,1,"""","""","""","""","""",image-multi-select,97,695679,0.0-1.0-0.96,5187.214999983553,"[""Stimuli/positive/8300.jpg"",""Stimuli/positive/4689.jpg"",""Stimuli/positive/2002.jpg""]","[""Stimuli/positive/8300.jpg"",""Stimuli/positive/4689.jpg""]","{""top_image"":""Stimuli/positive/8300.jpg"",""top_image_clicks"":[1105.184999993071],""left_image"":""Stimuli/positive/4689.jpg"",""left_image_clicks"":[4558.529999980237],""right_image"":""Stimuli/positive/2002.jpg"",""right_image_clicks"":[]}","2021-06-05 00:47:08",99.239.35.37,"Mozilla/5.0 (Windows NT 10.0; Win64; x64) AppleWebKit/537.36 (KHTML, like Gecko) Chrome/90.0.4430.212 Safari/537.36",WebKit,Chrome,90.0.4430.212,Windows,10.0
11,1,"""","""","""","""","""",image-multi-select,98,698839,0.0-1.0-0.97,3153.714999963995,"[""Stimuli/positive/7499.jpg"",""Stimuli/positive/b.jpg"",""Stimuli/neutral/N05.bmp""]","[""Stimuli/positive/7499.jpg"",""Stimuli/positive/b.jpg""]","{""top_image"":""Stimuli/positive/7499.jpg"",""top_image_clicks"":[1001.9650000031106],""left_image"":""Stimuli/positive/b.jpg"",""left_image_clicks"":[2297.5449999794364],""right_image"":""Stimuli/neutral/N05.bmp"",""right_image_clicks"":[]}","2021-06-05 00:47:08",99.239.35.37,"Mozilla/5.0 (Windows NT 10.0; Win64; x64) AppleWebKit/537.36 (KHTML, like Gecko) Chrome/90.0.4430.212 Safari/537.36",WebKit,Chrome,90.0.4430.212,Windows,10.0
11,1,"""","""","""","""","""",image-multi-select,99,709320,0.0-1.0-0.98,10476.985000015702,"[""Stimuli/positive/7499.jpg"",""Stimuli/negative/3180.jpg"",""Stimuli/neutral/SP2.jpg""]","[""Stimuli/negative/3180.jpg"",""Stimuli/neutral/SP2.jpg""]","{""top_image"":""Stimuli/positive/7499.jpg"",""top_image_clicks"":[4988.049999985378],""left_image"":""Stimuli/negative/3180.jpg"",""left_image_clicks"":[2065.4900000081398,8254.95500001125],""right_image"":""Stimuli/neutral/SP2.jpg"",""right_image_clicks"":[6761.91000000108,9466.184999968391]}","2021-06-05 00:47:08",99.239.35.37,"Mozilla/5.0 (Windows NT 10.0; Win64; x64) AppleWebKit/537.36 (KHTML, like Gecko) Chrome/90.0.4430.212 Safari/537.36",WebKit,Chrome,90.0.4430.212,Windows,10.0
11,1,"""","""","""","""","""",image-multi-select,100,712011,0.0-1.0-0.99,2676.165000011679,"[""Stimuli/negative/L29.bmp"",""Stimuli/neutral/2394.jpg"",""Stimuli/negative/SF4.jpg""]","[""Stimuli/negative/L29.bmp"",""Stimuli/negative/SF4.jpg""]","{""top_image"":""Stimuli/negative/L29.bmp"",""top_image_clicks"":[1942.174999974668],""left_image"":""Stimuli/neutral/2394.jpg"",""left_image_clicks"":[],""right_image"":""Stimuli/negative/SF4.jpg"",""right_image_clicks"":[2219.9799999943934]}","2021-06-05 00:47:08",99.239.35.37,"Mozilla/5.0 (Windows NT 10.0; Win64; x64) AppleWebKit/537.36 (KHTML, like Gecko) Chrome/90.0.4430.212 Safari/537.36",WebKit,Chrome,90.0.4430.212,Windows,10.0
11,1,"""","""","""","""","""",image-multi-select,101,714372,0.0-1.0-0.100,2358.745000034105,"[""Stimuli/positive/5831.jpg"",""Stimuli/positive/2025.jpg"",""Stimuli/neutral/2200.jpg""]","[""Stimuli/positive/5831.jpg"",""Stimuli/positive/2025.jpg""]","{""top_image"":""Stimuli/positive/5831.jpg"",""top_image_clicks"":[1621.9600000185892],""left_image"":""Stimuli/positive/2025.jpg"",""left_image_clicks"":[1936.2850000034086],""right_image"":""Stimuli/neutral/2200.jpg"",""right_image_clicks"":[]}","2021-06-05 00:47:08",99.239.35.37,"Mozilla/5.0 (Windows NT 10.0; Win64; x64) AppleWebKit/537.36 (KHTML, like Gecko) Chrome/90.0.4430.212 Safari/537.36",WebKit,Chrome,90.0.4430.212,Windows,10.0
11,1,"""","""","""","""","""",image-multi-select,102,718151,0.0-1.0-0.101,3777.4699999717996,"[""Stimuli/positive/2025.jpg"",""Stimuli/neutral/SP2.jpg"",""Stimuli/negative/206.jpg""]","[""Stimuli/neutral/SP2.jpg"",""Stimuli/negative/206.jpg""]","{""top_image"":""Stimuli/positive/2025.jpg"",""top_image_clicks"":[1147.3799999803305],""left_image"":""Stimuli/neutral/SP2.jpg"",""left_image_clicks"":[1557.744999998249,3268.5099999653175],""right_image"":""Stimuli/negative/206.jpg"",""right_image_clicks"":[3011.4750000066124]}","2021-06-05 00:47:08",99.239.35.37,"Mozilla/5.0 (Windows NT 10.0; Win64; x64) AppleWebKit/537.36 (KHTML, like Gecko) Chrome/90.0.4430.212 Safari/537.36",WebKit,Chrome,90.0.4430.212,Windows,10.0
11,1,"""","""","""","""","""",image-multi-select,103,730258,0.0-1.0-0.102,12094.350000028498,"[""Stimuli/positive/2395.jpg"",""Stimuli/neutral/SP2.jpg"",""Stimuli/negative/SF4.jpg""]","[""Stimuli/positive/2395.jpg"",""Stimuli/neutral/SP2.jpg""]","{""top_image"":""Stimuli/positive/2395.jpg"",""top_image_clicks"":[2232.944999996107,9725.085000041872],""left_image"":""Stimuli/neutral/SP2.jpg"",""left_image_clicks"":[10512.885000032838],""right_image"":""Stimuli/negative/SF4.jpg"",""right_image_clicks"":[]}","2021-06-05 00:47:08",99.239.35.37,"Mozilla/5.0 (Windows NT 10.0; Win64; x64) AppleWebKit/537.36 (KHTML, like Gecko) Chrome/90.0.4430.212 Safari/537.36",WebKit,Chrome,90.0.4430.212,Windows,10.0
11,1,"""","""","""","""","""",image-multi-select,104,733161,0.0-1.0-0.103,2898.619999992661,"[""Stimuli/neutral/2215.jpg"",""Stimuli/neutral/BP5.jpg"",""Stimuli/negative/L29.bmp""]","[""Stimuli/neutral/2215.jpg"",""Stimuli/neutral/BP5.jpg""]","{""top_image"":""Stimuli/neutral/2215.jpg"",""top_image_clicks"":[1425.8150000241585],""left_image"":""Stimuli/neutral/BP5.jpg"",""left_image_clicks"":[2302.2750000236556],""right_image"":""Stimuli/negative/L29.bmp"",""right_image_clicks"":[]}","2021-06-05 00:47:08",99.239.35.37,"Mozilla/5.0 (Windows NT 10.0; Win64; x64) AppleWebKit/537.36 (KHTML, like Gecko) Chrome/90.0.4430.212 Safari/537.36",WebKit,Chrome,90.0.4430.212,Windows,10.0
11,1,"""","""","""","""","""",image-multi-select,105,735598,0.0-1.0-0.104,2424.605000007432,"[""Stimuli/neutral/BP5.jpg"",""Stimuli/positive/2002.jpg"",""Stimuli/neutral/D.jpg""]","[""Stimuli/neutral/BP5.jpg"",""Stimuli/neutral/D.jpg""]","{""top_image"":""Stimuli/neutral/BP5.jpg"",""top_image_clicks"":[1313.895000028424],""left_image"":""Stimuli/positive/2002.jpg"",""left_image_clicks"":[],""right_image"":""Stimuli/neutral/D.jpg"",""right_image_clicks"":[1655.9899999992922]}","2021-06-05 00:47:08",99.239.35.37,"Mozilla/5.0 (Windows NT 10.0; Win64; x64) AppleWebKit/537.36 (KHTML, like Gecko) Chrome/90.0.4430.212 Safari/537.36",WebKit,Chrome,90.0.4430.212,Windows,10.0
11,1,"""","""","""","""","""",image-multi-select,106,740026,0.0-1.0-0.105,4424.8399999924,"[""Stimuli/positive/2395.jpg"",""Stimuli/negative/3180.jpg"",""Stimuli/positive/7325.jpg""]","[""Stimuli/positive/2395.jpg"",""Stimuli/positive/7325.jpg""]","{""top_image"":""Stimuli/positive/2395.jpg"",""top_image_clicks"":[3779.3449999880977],""left_image"":""Stimuli/negative/3180.jpg"",""left_image_clicks"":[2258.2099999999627],""right_image"":""Stimuli/positive/7325.jpg"",""right_image_clicks"":[2969.2350000259466]}","2021-06-05 00:47:08",99.239.35.37,"Mozilla/5.0 (Windows NT 10.0; Win64; x64) AppleWebKit/537.36 (KHTML, like Gecko) Chrome/90.0.4430.212 Safari/537.36",WebKit,Chrome,90.0.4430.212,Windows,10.0
11,1,"""","""","""","""","""",image-multi-select,107,747638,0.0-1.0-0.106,7597.425000043586,"[""Stimuli/positive/2395.jpg"",""Stimuli/positive/4689.jpg"",""Stimuli/positive/7325.jpg""]","[""Stimuli/positive/2395.jpg"",""Stimuli/positive/4689.jpg""]","{""top_image"":""Stimuli/positive/2395.jpg"",""top_image_clicks"":[1004.3200000072829,4895.335000008345],""left_image"":""Stimuli/positive/4689.jpg"",""left_image_clicks"":[5312.280000012834],""right_image"":""Stimuli/positive/7325.jpg"",""right_image_clicks"":[1299.3850000202656]}","2021-06-05 00:47:08",99.239.35.37,"Mozilla/5.0 (Windows NT 10.0; Win64; x64) AppleWebKit/537.36 (KHTML, like Gecko) Chrome/90.0.4430.212 Safari/537.36",WebKit,Chrome,90.0.4430.212,Windows,10.0
11,1,"""","""","""","""","""",image-multi-select,108,755749,0.0-1.0-0.107,8106.509999954142,"[""Stimuli/neutral/2215.jpg"",""Stimuli/negative/214.jpg"",""Stimuli/negative/SF4.jpg""]","[""Stimuli/negative/214.jpg"",""Stimuli/negative/SF4.jpg""]","{""top_image"":""Stimuli/neutral/2215.jpg"",""top_image_clicks"":[1495.4649999854155],""left_image"":""Stimuli/negative/214.jpg"",""left_image_clicks"":[7563.3449999731965],""right_image"":""Stimuli/negative/SF4.jpg"",""right_image_clicks"":[7132.074999972247]}","2021-06-05 00:47:08",99.239.35.37,"Mozilla/5.0 (Windows NT 10.0; Win64; x64) AppleWebKit/537.36 (KHTML, like Gecko) Chrome/90.0.4430.212 Safari/537.36",WebKit,Chrome,90.0.4430.212,Windows,10.0
11,1,"""","""","""","""","""",image-multi-select,109,758646,0.0-1.0-0.108,2882.3100000154227,"[""Stimuli/positive/5831.jpg"",""Stimuli/negative/207.jpg"",""Stimuli/positive/4689.jpg""]","[""Stimuli/positive/5831.jpg"",""Stimuli/positive/4689.jpg""]","{""top_image"":""Stimuli/positive/5831.jpg"",""top_image_clicks"":[2274.734999984503],""left_image"":""Stimuli/negative/207.jpg"",""left_image_clicks"":[],""right_image"":""Stimuli/positive/4689.jpg"",""right_image_clicks"":[1488.7350000208244]}","2021-06-05 00:47:08",99.239.35.37,"Mozilla/5.0 (Windows NT 10.0; Win64; x64) AppleWebKit/537.36 (KHTML, like Gecko) Chrome/90.0.4430.212 Safari/537.36",WebKit,Chrome,90.0.4430.212,Windows,10.0
11,1,"""","""","""","""","""",image-multi-select,110,762167,0.0-1.0-0.109,3515.784999995958,"[""Stimuli/positive/5628.jpg"",""Stimuli/neutral/N05.bmp"",""Stimuli/negative/206.jpg""]","[""Stimuli/neutral/N05.bmp"",""Stimuli/negative/206.jpg""]","{""top_image"":""Stimuli/positive/5628.jpg"",""top_image_clicks"":[],""left_image"":""Stimuli/neutral/N05.bmp"",""left_image_clicks"":[2069.5750000304542],""right_image"":""Stimuli/negative/206.jpg"",""right_image_clicks"":[3004.1799999889918]}","2021-06-05 00:47:08",99.239.35.37,"Mozilla/5.0 (Windows NT 10.0; Win64; x64) AppleWebKit/537.36 (KHTML, like Gecko) Chrome/90.0.4430.212 Safari/537.36",WebKit,Chrome,90.0.4430.212,Windows,10.0
11,1,"""","""","""","""","""",image-multi-select,111,766918,0.0-1.0-0.110,4737.564999959432,"[""Stimuli/neutral/194.jpg"",""Stimuli/positive/b.jpg"",""Stimuli/positive/7325.jpg""]","[""Stimuli/positive/b.jpg"",""Stimuli/positive/7325.jpg""]","{""top_image"":""Stimuli/neutral/194.jpg"",""top_image_clicks"":[1454.2449999717064],""left_image"":""Stimuli/positive/b.jpg"",""left_image_clicks"":[3780.689999985043],""right_image"":""Stimuli/positive/7325.jpg"",""right_image_clicks"":[4217.059999995399]}","2021-06-05 00:47:08",99.239.35.37,"Mozilla/5.0 (Windows NT 10.0; Win64; x64) AppleWebKit/537.36 (KHTML, like Gecko) Chrome/90.0.4430.212 Safari/537.36",WebKit,Chrome,90.0.4430.212,Windows,10.0
11,1,"""","""","""","""","""",image-multi-select,112,769789,0.0-1.0-0.111,2867.160000023432,"[""Stimuli/positive/5831.jpg"",""Stimuli/positive/2002.jpg"",""Stimuli/negative/6510.jpg""]","[""Stimuli/positive/5831.jpg"",""Stimuli/positive/2002.jpg""]","{""top_image"":""Stimuli/positive/5831.jpg"",""top_image_clicks"":[1861.0550000448711],""left_image"":""Stimuli/positive/2002.jpg"",""left_image_clicks"":[2187.32500000624],""right_image"":""Stimuli/negative/6510.jpg"",""right_image_clicks"":[]}","2021-06-05 00:47:08",99.239.35.37,"Mozilla/5.0 (Windows NT 10.0; Win64; x64) AppleWebKit/537.36 (KHTML, like Gecko) Chrome/90.0.4430.212 Safari/537.36",WebKit,Chrome,90.0.4430.212,Windows,10.0
11,1,"""","""","""","""","""",image-multi-select,113,776317,0.0-1.0-0.112,6514.670000004116,"[""Stimuli/positive/2395.jpg"",""Stimuli/neutral/N05.bmp"",""Stimuli/negative/206.jpg""]","[""Stimuli/neutral/N05.bmp"",""Stimuli/negative/206.jpg""]","{""top_image"":""Stimuli/positive/2395.jpg"",""top_image_clicks"":[],""left_image"":""Stimuli/neutral/N05.bmp"",""left_image_clicks"":[3640.160000009928],""right_image"":""Stimuli/negative/206.jpg"",""right_image_clicks"":[6033.319999987725]}","2021-06-05 00:47:08",99.239.35.37,"Mozilla/5.0 (Windows NT 10.0; Win64; x64) AppleWebKit/537.36 (KHTML, like Gecko) Chrome/90.0.4430.212 Safari/537.36",WebKit,Chrome,90.0.4430.212,Windows,10.0
11,1,"""","""","""","""","""",image-multi-select,114,782719,0.0-1.0-0.113,6392.935000010766,"[""Stimuli/positive/2395.jpg"",""Stimuli/neutral/194.jpg"",""Stimuli/positive/b.jpg""]","[""Stimuli/positive/2395.jpg"",""Stimuli/positive/b.jpg""]","{""top_image"":""Stimuli/positive/2395.jpg"",""top_image_clicks"":[4453.785000019707],""left_image"":""Stimuli/neutral/194.jpg"",""left_image_clicks"":[1033.4700000239536],""right_image"":""Stimuli/positive/b.jpg"",""right_image_clicks"":[4791.165000002366]}","2021-06-05 00:47:08",99.239.35.37,"Mozilla/5.0 (Windows NT 10.0; Win64; x64) AppleWebKit/537.36 (KHTML, like Gecko) Chrome/90.0.4430.212 Safari/537.36",WebKit,Chrome,90.0.4430.212,Windows,10.0
11,1,"""","""","""","""","""",image-multi-select,115,785507,0.0-1.0-0.114,2770.33000002848,"[""Stimuli/positive/8300.jpg"",""Stimuli/negative/L29.bmp"",""Stimuli/negative/214.jpg""]","[""Stimuli/negative/L29.bmp"",""Stimuli/negative/214.jpg""]","{""top_image"":""Stimuli/positive/8300.jpg"",""top_image_clicks"":[],""left_image"":""Stimuli/negative/L29.bmp"",""left_image_clicks"":[2019.945000007283],""right_image"":""Stimuli/negative/214.jpg"",""right_image_clicks"":[2289.2850000062026]}","2021-06-05 00:47:08",99.239.35.37,"Mozilla/5.0 (Windows NT 10.0; Win64; x64) AppleWebKit/537.36 (KHTML, like Gecko) Chrome/90.0.4430.212 Safari/537.36",WebKit,Chrome,90.0.4430.212,Windows,10.0
11,1,"""","""","""","""","""",image-multi-select,116,805190,0.0-1.0-0.115,19680.49499997869,"[""Stimuli/neutral/BP5.jpg"",""Stimuli/positive/5831.jpg"",""Stimuli/neutral/SP3.jpg""]","[""Stimuli/neutral/BP5.jpg"",""Stimuli/neutral/SP3.jpg""]","{""top_image"":""Stimuli/neutral/BP5.jpg"",""top_image_clicks"":[18217.364999989513],""left_image"":""Stimuli/positive/5831.jpg"",""left_image_clicks"":[],""right_image"":""Stimuli/neutral/SP3.jpg"",""right_image_clicks"":[19065.854999993462]}","2021-06-05 00:47:08",99.239.35.37,"Mozilla/5.0 (Windows NT 10.0; Win64; x64) AppleWebKit/537.36 (KHTML, like Gecko) Chrome/90.0.4430.212 Safari/537.36",WebKit,Chrome,90.0.4430.212,Windows,10.0
11,1,"""","""","""","""","""",image-multi-select,117,810042,0.0-1.0-0.116,4836.794999951962,"[""Stimuli/negative/6311.jpg"",""Stimuli/positive/b.jpg"",""Stimuli/negative/206.jpg""]","[""Stimuli/positive/b.jpg"",""Stimuli/negative/206.jpg""]","{""top_image"":""Stimuli/negative/6311.jpg"",""top_image_clicks"":[],""left_image"":""Stimuli/positive/b.jpg"",""left_image_clicks"":[4322.964999999385],""right_image"":""Stimuli/negative/206.jpg"",""right_image_clicks"":[3971.1749999551103]}","2021-06-05 00:47:08",99.239.35.37,"Mozilla/5.0 (Windows NT 10.0; Win64; x64) AppleWebKit/537.36 (KHTML, like Gecko) Chrome/90.0.4430.212 Safari/537.36",WebKit,Chrome,90.0.4430.212,Windows,10.0
11,1,"""","""","""","""","""",image-multi-select,118,813744,0.0-1.0-0.117,3698.9900000044145,"[""Stimuli/negative/L04.bmp"",""Stimuli/positive/4689.jpg"",""Stimuli/neutral/D.jpg""]","[""Stimuli/positive/4689.jpg"",""Stimuli/neutral/D.jpg""]","{""top_image"":""Stimuli/negative/L04.bmp"",""top_image_clicks"":[],""left_image"":""Stimuli/positive/4689.jpg"",""left_image_clicks"":[2977.4999999790452],""right_image"":""Stimuli/neutral/D.jpg"",""right_image_clicks"":[2395.7249999511987]}","2021-06-05 00:47:08",99.239.35.37,"Mozilla/5.0 (Windows NT 10.0; Win64; x64) AppleWebKit/537.36 (KHTML, like Gecko) Chrome/90.0.4430.212 Safari/537.36",WebKit,Chrome,90.0.4430.212,Windows,10.0
11,1,"""","""","""","""","""",image-multi-select,119,816980,0.0-1.0-0.118,3225.4300000495277,"[""Stimuli/positive/4689.jpg"",""Stimuli/neutral/2394.jpg"",""Stimuli/positive/7325.jpg""]","[""Stimuli/positive/4689.jpg"",""Stimuli/positive/7325.jpg""]","{""top_image"":""Stimuli/positive/4689.jpg"",""top_image_clicks"":[2607.75000002468],""left_image"":""Stimuli/neutral/2394.jpg"",""left_image_clicks"":[],""right_image"":""Stimuli/positive/7325.jpg"",""right_image_clicks"":[2396.385000029113]}","2021-06-05 00:47:08",99.239.35.37,"Mozilla/5.0 (Windows NT 10.0; Win64; x64) AppleWebKit/537.36 (KHTML, like Gecko) Chrome/90.0.4430.212 Safari/537.36",WebKit,Chrome,90.0.4430.212,Windows,10.0
11,1,"""","""","""","""","""",image-multi-select,120,819823,0.0-1.0-0.119,2840.2200000127777,"[""Stimuli/negative/L29.bmp"",""Stimuli/negative/6311.jpg"",""Stimuli/negative/6510.jpg""]","[""Stimuli/negative/L29.bmp"",""Stimuli/negative/6510.jpg""]","{""top_image"":""Stimuli/negative/L29.bmp"",""top_image_clicks"":[1064.9650000268593],""left_image"":""Stimuli/negative/6311.jpg"",""left_image_clicks"":[],""right_image"":""Stimuli/negative/6510.jpg"",""right_image_clicks"":[2149.600000004284]}","2021-06-05 00:47:08",99.239.35.37,"Mozilla/5.0 (Windows NT 10.0; Win64; x64) AppleWebKit/537.36 (KHTML, like Gecko) Chrome/90.0.4430.212 Safari/537.36",WebKit,Chrome,90.0.4430.212,Windows,10.0
11,1,"""","""","""","""","""",image-multi-select,121,831139,0.0-1.0-0.120,11311.905000009574,"[""Stimuli/positive/8300.jpg"",""Stimuli/neutral/SP2.jpg"",""Stimuli/negative/206.jpg""]","[""Stimuli/neutral/SP2.jpg"",""Stimuli/negative/206.jpg""]","{""top_image"":""Stimuli/positive/8300.jpg"",""top_image_clicks"":[],""left_image"":""Stimuli/neutral/SP2.jpg"",""left_image_clicks"":[10671.76500003552],""right_image"":""Stimuli/negative/206.jpg"",""right_image_clicks"":[4424.93999999715]}","2021-06-05 00:47:08",99.239.35.37,"Mozilla/5.0 (Windows NT 10.0; Win64; x64) AppleWebKit/537.36 (KHTML, like Gecko) Chrome/90.0.4430.212 Safari/537.36",WebKit,Chrome,90.0.4430.212,Windows,10.0
11,1,"""","""","""","""","""",image-multi-select,122,833688,0.0-1.0-0.121,2534.6300000092015,"[""Stimuli/negative/207.jpg"",""Stimuli/neutral/D.jpg"",""Stimuli/negative/9041.jpg""]","[""Stimuli/negative/207.jpg"",""Stimuli/negative/9041.jpg""]","{""top_image"":""Stimuli/negative/207.jpg"",""top_image_clicks"":[1860.1899999775924],""left_image"":""Stimuli/neutral/D.jpg"",""left_image_clicks"":[],""right_image"":""Stimuli/negative/9041.jpg"",""right_image_clicks"":[1570.2949999831617]}","2021-06-05 00:47:08",99.239.35.37,"Mozilla/5.0 (Windows NT 10.0; Win64; x64) AppleWebKit/537.36 (KHTML, like Gecko) Chrome/90.0.4430.212 Safari/537.36",WebKit,Chrome,90.0.4430.212,Windows,10.0
11,1,"""","""","""","""","""",image-multi-select,123,837502,0.0-1.0-0.122,3811.5600000019185,"[""Stimuli/positive/4689.jpg"",""Stimuli/negative/SF4.jpg"",""Stimuli/negative/206.jpg""]","[""Stimuli/negative/SF4.jpg"",""Stimuli/negative/206.jpg""]","{""top_image"":""Stimuli/positive/4689.jpg"",""top_image_clicks"":[],""left_image"":""Stimuli/negative/SF4.jpg"",""left_image_clicks"":[3190.6350000062957],""right_image"":""Stimuli/negative/206.jpg"",""right_image_clicks"":[2696.8849999830127]}","2021-06-05 00:47:08",99.239.35.37,"Mozilla/5.0 (Windows NT 10.0; Win64; x64) AppleWebKit/537.36 (KHTML, like Gecko) Chrome/90.0.4430.212 Safari/537.36",WebKit,Chrome,90.0.4430.212,Windows,10.0
11,1,"""","""","""","""","""",image-multi-select,124,840193,0.0-1.0-0.123,2687.529999995604,"[""Stimuli/neutral/2394.jpg"",""Stimuli/neutral/N05.bmp"",""Stimuli/positive/7325.jpg""]","[""Stimuli/neutral/2394.jpg"",""Stimuli/neutral/N05.bmp""]","{""top_image"":""Stimuli/neutral/2394.jpg"",""top_image_clicks"":[1940.6400000443682],""left_image"":""Stimuli/neutral/N05.bmp"",""left_image_clicks"":[1600.2900000312366],""right_image"":""Stimuli/positive/7325.jpg"",""right_image_clicks"":[]}","2021-06-05 00:47:08",99.239.35.37,"Mozilla/5.0 (Windows NT 10.0; Win64; x64) AppleWebKit/537.36 (KHTML, like Gecko) Chrome/90.0.4430.212 Safari/537.36",WebKit,Chrome,90.0.4430.212,Windows,10.0
11,1,"""","""","""","""","""",image-multi-select,125,843140,0.0-1.0-0.124,2933.1750000128523,"[""Stimuli/neutral/2200.jpg"",""Stimuli/negative/214.jpg"",""Stimuli/negative/9041.jpg""]","[""Stimuli/negative/214.jpg"",""Stimuli/negative/9041.jpg""]","{""top_image"":""Stimuli/neutral/2200.jpg"",""top_image_clicks"":[],""left_image"":""Stimuli/negative/214.jpg"",""left_image_clicks"":[2394.6349999750964],""right_image"":""Stimuli/negative/9041.jpg"",""right_image_clicks"":[2140.35000000149]}","2021-06-05 00:47:08",99.239.35.37,"Mozilla/5.0 (Windows NT 10.0; Win64; x64) AppleWebKit/537.36 (KHTML, like Gecko) Chrome/90.0.4430.212 Safari/537.36",WebKit,Chrome,90.0.4430.212,Windows,10.0
11,1,"""","""","""","""","""",image-multi-select,126,850066,0.0-1.0-0.125,6923.929999989923,"[""Stimuli/positive/b.jpg"",""Stimuli/positive/2002.jpg"",""Stimuli/neutral/D.jpg""]","[""Stimuli/positive/b.jpg"",""Stimuli/positive/2002.jpg""]","{""top_image"":""Stimuli/positive/b.jpg"",""top_image_clicks"":[5603.130000003148],""left_image"":""Stimuli/positive/2002.jpg"",""left_image_clicks"":[5949.549999961164],""right_image"":""Stimuli/neutral/D.jpg"",""right_image_clicks"":[]}","2021-06-05 00:47:08",99.239.35.37,"Mozilla/5.0 (Windows NT 10.0; Win64; x64) AppleWebKit/537.36 (KHTML, like Gecko) Chrome/90.0.4430.212 Safari/537.36",WebKit,Chrome,90.0.4430.212,Windows,10.0
11,1,"""","""","""","""","""",image-multi-select,127,859030,0.0-1.0-0.126,8947.955000039656,"[""Stimuli/negative/L04.bmp"",""Stimuli/positive/5831.jpg"",""Stimuli/negative/3180.jpg""]","[""Stimuli/negative/L04.bmp"",""Stimuli/negative/3180.jpg""]","{""top_image"":""Stimuli/negative/L04.bmp"",""top_image_clicks"":[7965.740000014193],""left_image"":""Stimuli/positive/5831.jpg"",""left_image_clicks"":[],""right_image"":""Stimuli/negative/3180.jpg"",""right_image_clicks"":[8373.424999997951]}","2021-06-05 00:47:08",99.239.35.37,"Mozilla/5.0 (Windows NT 10.0; Win64; x64) AppleWebKit/537.36 (KHTML, like Gecko) Chrome/90.0.4430.212 Safari/537.36",WebKit,Chrome,90.0.4430.212,Windows,10.0
11,1,"""","""","""","""","""",image-multi-select,128,862022,0.0-1.0-0.127,2987.7850000048056,"[""Stimuli/neutral/194.jpg"",""Stimuli/negative/207.jpg"",""Stimuli/negative/SF4.jpg""]","[""Stimuli/negative/207.jpg"",""Stimuli/negative/SF4.jpg""]","{""top_image"":""Stimuli/neutral/194.jpg"",""top_image_clicks"":[],""left_image"":""Stimuli/negative/207.jpg"",""left_image_clicks"":[2405.2300000330433],""right_image"":""Stimuli/negative/SF4.jpg"",""right_image_clicks"":[2074.5549999992363]}","2021-06-05 00:47:08",99.239.35.37,"Mozilla/5.0 (Windows NT 10.0; Win64; x64) AppleWebKit/537.36 (KHTML, like Gecko) Chrome/90.0.4430.212 Safari/537.36",WebKit,Chrome,90.0.4430.212,Windows,10.0
11,1,"""","""","""","""","""",image-multi-select,129,866707,0.0-1.0-0.128,4669.170000008307,"[""Stimuli/negative/3180.jpg"",""Stimuli/negative/6311.jpg"",""Stimuli/positive/2002.jpg""]","[""Stimuli/negative/3180.jpg"",""Stimuli/negative/6311.jpg""]","{""top_image"":""Stimuli/negative/3180.jpg"",""top_image_clicks"":[3166.6950000217184],""left_image"":""Stimuli/negative/6311.jpg"",""left_image_clicks"":[2902.410000038799],""right_image"":""Stimuli/positive/2002.jpg"",""right_image_clicks"":[1127.7150000096299]}","2021-06-05 00:47:08",99.239.35.37,"Mozilla/5.0 (Windows NT 10.0; Win64; x64) AppleWebKit/537.36 (KHTML, like Gecko) Chrome/90.0.4430.212 Safari/537.36",WebKit,Chrome,90.0.4430.212,Windows,10.0
11,1,"""","""","""","""","""",image-multi-select,130,869420,0.0-1.0-0.129,2708.8399999774992,"[""Stimuli/negative/3180.jpg"",""Stimuli/positive/4689.jpg"",""Stimuli/negative/SF4.jpg""]","[""Stimuli/negative/3180.jpg"",""Stimuli/negative/SF4.jpg""]","{""top_image"":""Stimuli/negative/3180.jpg"",""top_image_clicks"":[1668.9299999852665],""left_image"":""Stimuli/positive/4689.jpg"",""left_image_clicks"":[],""right_image"":""Stimuli/negative/SF4.jpg"",""right_image_clicks"":[2078.6000000080094]}","2021-06-05 00:47:08",99.239.35.37,"Mozilla/5.0 (Windows NT 10.0; Win64; x64) AppleWebKit/537.36 (KHTML, like Gecko) Chrome/90.0.4430.212 Safari/537.36",WebKit,Chrome,90.0.4430.212,Windows,10.0
11,1,"""","""","""","""","""",image-multi-select,131,887831,0.0-1.0-0.130,18397.130000055768,"[""Stimuli/neutral/2215.jpg"",""Stimuli/positive/2025.jpg"",""Stimuli/neutral/D.jpg""]","[""Stimuli/neutral/2215.jpg"",""Stimuli/neutral/D.jpg""]","{""top_image"":""Stimuli/neutral/2215.jpg"",""top_image_clicks"":[17772.205000044778],""left_image"":""Stimuli/positive/2025.jpg"",""left_image_clicks"":[],""right_image"":""Stimuli/neutral/D.jpg"",""right_image_clicks"":[17344.71500001382]}","2021-06-05 00:47:08",99.239.35.37,"Mozilla/5.0 (Windows NT 10.0; Win64; x64) AppleWebKit/537.36 (KHTML, like Gecko) Chrome/90.0.4430.212 Safari/537.36",WebKit,Chrome,90.0.4430.212,Windows,10.0
11,1,"""","""","""","""","""",image-multi-select,132,890104,0.0-1.0-0.131,2270.829999994021,"[""Stimuli/positive/7499.jpg"",""Stimuli/positive/4689.jpg"",""Stimuli/negative/206.jpg""]","[""Stimuli/positive/7499.jpg"",""Stimuli/positive/4689.jpg""]","{""top_image"":""Stimuli/positive/7499.jpg"",""top_image_clicks"":[1488.6849999893457],""left_image"":""Stimuli/positive/4689.jpg"",""left_image_clicks"":[1769.9049999937415],""right_image"":""Stimuli/negative/206.jpg"",""right_image_clicks"":[]}","2021-06-05 00:47:08",99.239.35.37,"Mozilla/5.0 (Windows NT 10.0; Win64; x64) AppleWebKit/537.36 (KHTML, like Gecko) Chrome/90.0.4430.212 Safari/537.36",WebKit,Chrome,90.0.4430.212,Windows,10.0
11,1,"""","""","""","""","""",image-multi-select,133,893688,0.0-1.0-0.132,3577.0250000059605,"[""Stimuli/negative/L29.bmp"",""Stimuli/positive/b.jpg"",""Stimuli/negative/206.jpg""]","[""Stimuli/negative/L29.bmp"",""Stimuli/negative/206.jpg""]","{""top_image"":""Stimuli/negative/L29.bmp"",""top_image_clicks"":[1442.2999999951571],""left_image"":""Stimuli/positive/b.jpg"",""left_image_clicks"":[],""right_image"":""Stimuli/negative/206.jpg"",""right_image_clicks"":[1687.9500000504777]}","2021-06-05 00:47:08",99.239.35.37,"Mozilla/5.0 (Windows NT 10.0; Win64; x64) AppleWebKit/537.36 (KHTML, like Gecko) Chrome/90.0.4430.212 Safari/537.36",WebKit,Chrome,90.0.4430.212,Windows,10.0
11,1,"""","""","""","""","""",image-multi-select,134,898120,0.0-1.0-0.133,4431.114999984857,"[""Stimuli/neutral/2200.jpg"",""Stimuli/negative/L29.bmp"",""Stimuli/neutral/SP2.jpg""]","[""Stimuli/neutral/2200.jpg"",""Stimuli/neutral/SP2.jpg""]","{""top_image"":""Stimuli/neutral/2200.jpg"",""top_image_clicks"":[3436.905000009574],""left_image"":""Stimuli/negative/L29.bmp"",""left_image_clicks"":[1966.8299999902956],""right_image"":""Stimuli/neutral/SP2.jpg"",""right_image_clicks"":[3794.670000032056]}","2021-06-05 00:47:08",99.239.35.37,"Mozilla/5.0 (Windows NT 10.0; Win64; x64) AppleWebKit/537.36 (KHTML, like Gecko) Chrome/90.0.4430.212 Safari/537.36",WebKit,Chrome,90.0.4430.212,Windows,10.0
11,1,"""","""","""","""","""",image-multi-select,135,900721,0.0-1.0-0.134,2584.9200000520796,"[""Stimuli/negative/3180.jpg"",""Stimuli/positive/5628.jpg"",""Stimuli/negative/214.jpg""]","[""Stimuli/negative/3180.jpg"",""Stimuli/negative/214.jpg""]","{""top_image"":""Stimuli/negative/3180.jpg"",""top_image_clicks"":[1687.1350000146776],""left_image"":""Stimuli/positive/5628.jpg"",""left_image_clicks"":[],""right_image"":""Stimuli/negative/214.jpg"",""right_image_clicks"":[2094.180000014603]}","2021-06-05 00:47:08",99.239.35.37,"Mozilla/5.0 (Windows NT 10.0; Win64; x64) AppleWebKit/537.36 (KHTML, like Gecko) Chrome/90.0.4430.212 Safari/537.36",WebKit,Chrome,90.0.4430.212,Windows,10.0
11,1,"""","""","""","""","""",image-multi-select,136,910002,0.0-1.0-0.135,9278.050000022631,"[""Stimuli/positive/8300.jpg"",""Stimuli/neutral/SP3.jpg"",""Stimuli/negative/6510.jpg""]","[""Stimuli/neutral/SP3.jpg"",""Stimuli/negative/6510.jpg""]","{""top_image"":""Stimuli/positive/8300.jpg"",""top_image_clicks"":[2532.215000013821],""left_image"":""Stimuli/neutral/SP3.jpg"",""left_image_clicks"":[7336.339999979828],""right_image"":""Stimuli/negative/6510.jpg"",""right_image_clicks"":[1575.075000000652,8556.604999990668]}","2021-06-05 00:47:08",99.239.35.37,"Mozilla/5.0 (Windows NT 10.0; Win64; x64) AppleWebKit/537.36 (KHTML, like Gecko) Chrome/90.0.4430.212 Safari/537.36",WebKit,Chrome,90.0.4430.212,Windows,10.0
11,1,"""","""","""","""","""",image-multi-select,137,919791,0.0-1.0-0.136,9772.095000022091,"[""Stimuli/negative/L04.bmp"",""Stimuli/positive/5628.jpg"",""Stimuli/neutral/SP2.jpg""]","[""Stimuli/negative/L04.bmp"",""Stimuli/neutral/SP2.jpg""]","{""top_image"":""Stimuli/negative/L04.bmp"",""top_image_clicks"":[5433.180000050925],""left_image"":""Stimuli/positive/5628.jpg"",""left_image_clicks"":[],""right_image"":""Stimuli/neutral/SP2.jpg"",""right_image_clicks"":[6025.755000009667]}","2021-06-05 00:47:08",99.239.35.37,"Mozilla/5.0 (Windows NT 10.0; Win64; x64) AppleWebKit/537.36 (KHTML, like Gecko) Chrome/90.0.4430.212 Safari/537.36",WebKit,Chrome,90.0.4430.212,Windows,10.0
11,1,"""","""","""","""","""",image-multi-select,138,922812,0.0-1.0-0.137,3016.9999999925494,"[""Stimuli/neutral/194.jpg"",""Stimuli/neutral/2200.jpg"",""Stimuli/neutral/SP2.jpg""]","[""Stimuli/neutral/194.jpg"",""Stimuli/neutral/SP2.jpg""]","{""top_image"":""Stimuli/neutral/194.jpg"",""top_image_clicks"":[2165.4999999445863],""left_image"":""Stimuli/neutral/2200.jpg"",""left_image_clicks"":[],""right_image"":""Stimuli/neutral/SP2.jpg"",""right_image_clicks"":[2485.9899999573827]}","2021-06-05 00:47:08",99.239.35.37,"Mozilla/5.0 (Windows NT 10.0; Win64; x64) AppleWebKit/537.36 (KHTML, like Gecko) Chrome/90.0.4430.212 Safari/537.36",WebKit,Chrome,90.0.4430.212,Windows,10.0
11,1,"""","""","""","""","""",image-multi-select,139,926826,0.0-1.0-0.138,3996.0199999623,"[""Stimuli/neutral/2215.jpg"",""Stimuli/positive/2025.jpg"",""Stimuli/positive/2002.jpg""]","[""Stimuli/neutral/2215.jpg"",""Stimuli/positive/2002.jpg""]","{""top_image"":""Stimuli/neutral/2215.jpg"",""top_image_clicks"":[2043.4149999637157],""left_image"":""Stimuli/positive/2025.jpg"",""left_image_clicks"":[],""right_image"":""Stimuli/positive/2002.jpg"",""right_image_clicks"":[3158.1349999760278]}","2021-06-05 00:47:08",99.239.35.37,"Mozilla/5.0 (Windows NT 10.0; Win64; x64) AppleWebKit/537.36 (KHTML, like Gecko) Chrome/90.0.4430.212 Safari/537.36",WebKit,Chrome,90.0.4430.212,Windows,10.0
11,1,"""","""","""","""","""",image-multi-select,140,932124,0.0-1.0-0.139,5294.265000033192,"[""Stimuli/neutral/2200.jpg"",""Stimuli/negative/L29.bmp"",""Stimuli/neutral/SP3.jpg""]","[""Stimuli/neutral/2200.jpg"",""Stimuli/neutral/SP3.jpg""]","{""top_image"":""Stimuli/neutral/2200.jpg"",""top_image_clicks"":[1464.940000034403],""left_image"":""Stimuli/negative/L29.bmp"",""left_image_clicks"":[],""right_image"":""Stimuli/neutral/SP3.jpg"",""right_image_clicks"":[4636.534999997821]}","2021-06-05 00:47:08",99.239.35.37,"Mozilla/5.0 (Windows NT 10.0; Win64; x64) AppleWebKit/537.36 (KHTML, like Gecko) Chrome/90.0.4430.212 Safari/537.36",WebKit,Chrome,90.0.4430.212,Windows,10.0
11,1,"""","""","""","""","""",image-multi-select,141,936646,0.0-1.0-0.140,4503.3450000337325,"[""Stimuli/positive/8300.jpg"",""Stimuli/positive/2002.jpg"",""Stimuli/neutral/2442.jpg""]","[""Stimuli/positive/2002.jpg"",""Stimuli/neutral/2442.jpg""]","{""top_image"":""Stimuli/positive/8300.jpg"",""top_image_clicks"":[1475.685000012163],""left_image"":""Stimuli/positive/2002.jpg"",""left_image_clicks"":[3257.49500002712],""right_image"":""Stimuli/neutral/2442.jpg"",""right_image_clicks"":[3743.5350000159815]}","2021-06-05 00:47:08",99.239.35.37,"Mozilla/5.0 (Windows NT 10.0; Win64; x64) AppleWebKit/537.36 (KHTML, like Gecko) Chrome/90.0.4430.212 Safari/537.36",WebKit,Chrome,90.0.4430.212,Windows,10.0
11,1,"""","""","""","""","""",image-multi-select,142,944378,0.0-1.0-0.141,7728.914999985136,"[""Stimuli/positive/2395.jpg"",""Stimuli/neutral/SP3.jpg"",""Stimuli/neutral/D.jpg""]","[""Stimuli/neutral/SP3.jpg"",""Stimuli/neutral/D.jpg""]","{""top_image"":""Stimuli/positive/2395.jpg"",""top_image_clicks"":[3015.2699999744073],""left_image"":""Stimuli/neutral/SP3.jpg"",""left_image_clicks"":[7065.854999993462],""right_image"":""Stimuli/neutral/D.jpg"",""right_image_clicks"":[6531.709999952]}","2021-06-05 00:47:08",99.239.35.37,"Mozilla/5.0 (Windows NT 10.0; Win64; x64) AppleWebKit/537.36 (KHTML, like Gecko) Chrome/90.0.4430.212 Safari/537.36",WebKit,Chrome,90.0.4430.212,Windows,10.0
11,1,"""","""","""","""","""",image-multi-select,143,948664,0.0-1.0-0.142,4267.909999995027,"[""Stimuli/positive/2395.jpg"",""Stimuli/negative/214.jpg"",""Stimuli/negative/206.jpg""]","[""Stimuli/negative/214.jpg"",""Stimuli/negative/206.jpg""]","{""top_image"":""Stimuli/positive/2395.jpg"",""top_image_clicks"":[],""left_image"":""Stimuli/negative/214.jpg"",""left_image_clicks"":[2804.0749999927357],""right_image"":""Stimuli/negative/206.jpg"",""right_image_clicks"":[3547.199999971781]}","2021-06-05 00:47:08",99.239.35.37,"Mozilla/5.0 (Windows NT 10.0; Win64; x64) AppleWebKit/537.36 (KHTML, like Gecko) Chrome/90.0.4430.212 Safari/537.36",WebKit,Chrome,90.0.4430.212,Windows,10.0
11,1,"""","""","""","""","""",image-multi-select,144,956072,0.0-1.0-0.143,7404.324999952223,"[""Stimuli/neutral/2200.jpg"",""Stimuli/negative/214.jpg"",""Stimuli/neutral/D.jpg""]","[""Stimuli/neutral/2200.jpg"",""Stimuli/neutral/D.jpg""]","{""top_image"":""Stimuli/neutral/2200.jpg"",""top_image_clicks"":[5064.454999985173],""left_image"":""Stimuli/negative/214.jpg"",""left_image_clicks"":[2348.7800000002608],""right_image"":""Stimuli/neutral/D.jpg"",""right_image_clicks"":[6568.014999968]}","2021-06-05 00:47:08",99.239.35.37,"Mozilla/5.0 (Windows NT 10.0; Win64; x64) AppleWebKit/537.36 (KHTML, like Gecko) Chrome/90.0.4430.212 Safari/537.36",WebKit,Chrome,90.0.4430.212,Windows,10.0
